.44,0.043098,1.853207,0.000360,-0.000197,-0.000192,-11.220822,66.239044,-40.628768,-17.03,-17.77,-16.97
02,-17.77,-16.96
9.725744,0.043098,1.853207,0.000360,-0.000197,-0.000192,-11.220822,66.239044,-40.628768,-17.03,-17.77,-16.97
02,-17.77,-16.96
9.725744,0.043098,1.853207,0.000360,-0.000197,-0.000192,-11.220822,66.239044,-40.628768,-17.03,-17.77,-16.97
AcclerometerX,AcclerometerY,AcclerometerZ,GyroscopeX,GyroscopeY,GyroscopeZ,MagnetometerX,MagnetometerY,MagnetometerZ,Roll,Pitch,Yaw
9.725744,0.033521,1.843629,-0.000439,-0.000112,0.000486,-12.125727,66.420028,-39.052654,-0.06,0.00,-0.03
9.725744,0.033521,1.843629,-0.000439,-0.000112,0.000486,-12.125727,66.420028,-39.052654,-0.10,-0.03,-0.09
9.701800,0.028732,1.824475,-0.000040,0.000953,0.000486,-12.125727,66.420028,-39.052654,-0.13,-0.06,-0.14
9.720954,0.023943,1.843629,0.000892,0.000554,-0.000047,-12.125727,66.420028,-39.052654,-0.17,-0.09,-0.19
9.720954,0.023943,1.843629,0.000892,0.000554,-0.000047,-12.125727,66.420028,-39.052654,-0.21,-0.12,-0.24
9.730532,0.052675,1.843629,0.000493,-0.000911,0.000353,-12.125727,66.420028,-39.052654,-0.24,-0.15,-0.29
9.720954,0.028732,1.848418,0.000226,-0.000644,0.001019,-13.211613,67.867874,-40.103397,-0.28,-0.18,-0.34
9.720954,0.028732,1.848418,0.000226,-0.000644,0.001019,-13.211613,67.867874,-40.103397,-0.32,-0.21,-0.39
9.740109,0.028732,1.829263,-0.000040,-0.001443,0.000619,-13.211613,67.867874,-40.103397,-0.35,-0.24,-0.44
9.720954,0.033521,1.824475,0.000226,0.000953,0.000087,-13.211613,67.867874,-40.103397,-0.39,-0.27,-0.49
9.720954,0.033521,1.824475,0.000226,0.000953,0.000087,-13.211613,67.867874,-40.103397,-0.43,-0.30,-0.54
9.735321,0.047886,1.824475,0.000892,0.001353,-0.000712,-13.211613,67.867874,-40.103397,-0.46,-0.33,-0.59
9.720954,0.062252,1.853207,-0.000040,0.000288,-0.000313,-13.211613,67.867874,-40.103397,-0.50,-0.36,-0.64
9.711378,0.023943,1.843629,0.000360,-0.000112,-0.000313,-13.211613,67.867874,-40.103397,-0.54,-0.39,-0.69
9.711378,0.023943,1.843629,0.000360,-0.000112,-0.000313,-13.211613,67.867874,-40.103397,-0.57,-0.42,-0.74
9.716166,0.033521,1.848418,0.001558,0.001752,-0.000446,-13.211613,67.867874,-40.103397,-0.61,-0.45,-0.79
9.725744,0.047886,1.838841,0.001025,0.001220,-0.000047,-11.582784,65.877082,-39.578025,-0.65,-0.48,-0.84
9.725744,0.047886,1.838841,0.001025,0.001220,-0.000047,-11.582784,65.877082,-39.578025,-0.68,-0.51,-0.89
9.720954,0.047886,1.829263,0.000360,-0.000511,-0.000579,-11.582784,65.877082,-39.578025,-0.72,-0.54,-0.94
9.720954,0.043098,1.843629,-0.000573,0.000154,-0.000313,-11.582784,65.877082,-39.578025,-0.76,-0.57,-0.99
9.720954,0.043098,1.843629,-0.000573,0.000154,-0.000313,-11.582784,65.877082,-39.578025,-0.80,-0.61,-1.04
9.716166,0.038309,1.838841,-0.001238,-0.000245,0.000087,-11.582784,65.877082,-39.578025,-0.83,-0.64,-1.09
9.730532,0.038309,1.843629,-0.000306,0.000820,0.000886,-11.582784,65.877082,-39.578025,-0.87,-0.67,-1.14
9.730532,0.038309,1.843629,-0.000306,0.000820,0.000886,-11.582784,65.877082,-39.578025,-0.91,-0.70,-1.19
9.725744,0.028732,1.843629,0.000360,-0.002376,0.000353,-11.582784,65.877082,-39.578025,-0.94,-0.73,-1.24
9.730532,0.038309,1.824475,0.001025,0.001486,0.000353,-11.582784,67.324928,-37.826786,-0.98,-0.76,-1.29
9.735321,0.043098,1.838841,-0.000972,-0.000644,-0.000313,-11.582784,67.324928,-37.826786,-1.01,-0.79,-1.35
9.735321,0.043098,1.838841,-0.000972,-0.000644,-0.000313,-11.582784,67.324928,-37.826786,-1.05,-0.83,-1.40
9.735321,0.028732,1.848418,0.000892,-0.000112,-0.000313,-11.582784,67.324928,-37.826786,-1.09,-0.86,-1.45
9.720954,0.033521,1.857995,0.000360,0.001619,-0.000047,-11.582784,67.324928,-37.826786,-1.12,-0.89,-1.50
9.720954,0.033521,1.857995,0.000360,0.001619,-0.000047,-11.582784,67.324928,-37.826786,-1.16,-0.92,-1.55
9.735321,0.038309,1.829263,-0.000439,-0.001177,-0.000313,-11.582784,67.324928,-37.826786,-1.19,-0.95,-1.60
9.716166,0.014366,1.834052,0.000093,0.001087,-0.000047,-11.582784,67.324928,-37.826786,-1.23,-0.98,-1.65
9.716166,0.014366,1.834052,0.000093,0.001087,-0.000047,-11.582784,67.324928,-37.826786,-1.27,-1.01,-1.70
9.744898,0.033521,1.848418,-0.000173,-0.000644,0.000353,-10.858860,67.686889,-38.177032,-1.30,-1.04,-1.75
9.730532,0.028732,1.838841,-0.000439,-0.000911,0.000087,-10.858860,67.686889,-38.177032,-1.34,-1.07,-1.81
9.730532,0.028732,1.838841,-0.000439,-0.000911,0.000087,-10.858860,67.686889,-38.177032,-1.37,-1.11,-1.86
9.740109,0.047886,1.843629,-0.000173,-0.001177,-0.000047,-10.858860,67.686889,-38.177032,-1.41,-1.14,-1.91
9.716166,0.033521,1.824475,0.000226,0.001486,0.000353,-10.858860,67.686889,-38.177032,-1.44,-1.17,-1.96
9.720954,0.043098,1.853207,-0.000306,-0.000778,0.001551,-10.858860,67.686889,-38.177032,-1.48,-1.20,-2.01
9.720954,0.043098,1.853207,-0.000306,-0.000778,0.001551,-10.858860,67.686889,-38.177032,-1.52,-1.23,-2.06
9.711378,0.028732,1.843629,-0.000173,-0.000378,0.000220,-10.858860,67.686889,-38.177032,-1.55,-1.26,-2.11
9.716166,0.028732,1.829263,-0.000706,-0.002908,-0.000047,-10.858860,67.686889,-38.177032,-1.59,-1.30,-2.16
9.716166,0.028732,1.829263,-0.000706,-0.002908,-0.000047,-10.858860,67.686889,-38.177032,-1.63,-1.33,-2.21
9.716166,0.033521,1.829263,0.001824,0.002152,0.001019,-11.763765,67.143951,-39.753147,-1.66,-1.36,-2.26
9.740109,0.033521,1.838841,-0.000173,-0.001443,0.000220,-11.763765,67.143951,-39.753147,-1.70,-1.39,-2.31
9.740109,0.033521,1.838841,-0.000173,-0.001443,0.000220,-11.763765,67.143951,-39.753147,-1.74,-1.42,-2.36
9.725744,0.038309,1.834052,-0.000173,-0.001044,0.000087,-11.763765,67.143951,-39.753147,-1.77,-1.46,-2.41
9.725744,0.047886,1.829263,0.000759,-0.000511,0.000220,-11.763765,67.143951,-39.753147,-1.81,-1.49,-2.46
9.725744,0.047886,1.829263,0.000759,-0.000511,0.000220,-11.763765,67.143951,-39.753147,-1.85,-1.52,-2.51
9.730532,0.052675,1.853207,0.000759,0.000288,-0.000180,-11.763765,67.143951,-39.753147,-1.89,-1.56,-2.56
9.716166,0.038309,1.843629,-0.000040,-0.001843,0.000619,-11.763765,67.143951,-39.753147,-1.92,-1.59,-2.60
9.716166,0.028732,1.843629,-0.000439,0.000820,0.000087,-12.487689,66.420028,-38.702404,-1.96,-1.62,-2.65
9.716166,0.028732,1.843629,-0.000439,0.000820,0.000087,-12.487689,66.420028,-38.702404,-2.00,-1.65,-2.70
9.716166,0.038309,1.810109,0.000493,-0.000378,-0.000180,-12.487689,66.420028,-38.702404,-2.04,-1.69,-2.75
9.716166,0.038309,1.862784,0.000892,0.001486,0.000619,-12.487689,66.420028,-38.702404,-2.07,-1.72,-2.80
9.716166,0.038309,1.862784,0.000892,0.001486,0.000619,-12.487689,66.420028,-38.702404,-2.11,-1.75,-2.85
9.720954,0.023943,1.843629,0.000360,-0.000245,0.000886,-12.487689,66.420028,-38.702404,-2.15,-1.79,-2.90
9.720954,0.023943,1.834052,-0.000839,-0.001044,0.000486,-12.487689,66.420028,-38.702404,-2.18,-1.82,-2.95
9.720954,0.023943,1.834052,-0.000839,-0.001044,0.000486,-12.487689,66.420028,-38.702404,-2.22,-1.85,-3.00
9.720954,0.043098,1.843629,-0.001638,0.000288,-0.000846,-12.487689,66.420028,-38.702404,-2.26,-1.88,-3.04
9.716166,0.038309,1.819686,-0.000972,-0.001577,-0.000047,-13.211613,66.058059,-39.402900,-2.30,-1.92,-3.09
9.716166,0.038309,1.819686,-0.000972,-0.001577,-0.000047,-13.211613,66.058059,-39.402900,-2.34,-1.95,-3.14
9.720954,0.038309,1.829263,-0.001105,-0.001443,-0.000180,-13.211613,66.058059,-39.402900,-2.37,-1.98,-3.19
9.725744,0.028732,1.829263,-0.000573,0.001220,0.001019,-13.211613,66.058059,-39.402900,-2.41,-2.02,-3.24
9.735321,0.038309,1.838841,-0.000040,0.001886,0.000619,-13.211613,66.058059,-39.402900,-2.45,-2.05,-3.28
9.735321,0.038309,1.838841,-0.000040,0.001886,0.000619,-13.211613,66.058059,-39.402900,-2.49,-2.08,-3.33
9.725744,0.028732,1.838841,0.001824,0.002019,-0.000313,-13.211613,66.058059,-39.402900,-2.53,-2.12,-3.38
9.725744,0.038309,1.843629,0.001025,0.001353,0.000220,-13.211613,66.058059,-39.402900,-2.56,-2.15,-3.42
9.725744,0.038309,1.843629,0.001025,0.001353,0.000220,-13.211613,66.058059,-39.402900,-2.60,-2.18,-3.47
9.716166,0.043098,1.838841,0.000892,0.000953,-0.000180,-10.858860,66.962966,-39.578025,-2.64,-2.22,-3.52
9.730532,0.038309,1.867572,0.000892,-0.000245,-0.000446,-10.858860,66.962966,-39.578025,-2.67,-2.25,-3.57
9.730532,0.038309,1.867572,0.000892,-0.000245,-0.000446,-10.858860,66.962966,-39.578025,-2.71,-2.29,-3.61
9.720954,0.033521,1.829263,0.001824,-0.000378,-0.000579,-10.858860,66.962966,-39.578025,-2.75,-2.32,-3.66
9.716166,0.043098,1.824475,0.000093,-0.002509,-0.000579,-10.858860,66.962966,-39.578025,-2.79,-2.35,-3.71
9.716166,0.043098,1.824475,0.000093,-0.002509,-0.000579,-10.858860,66.962966,-39.578025,-2.82,-2.39,-3.76
9.725744,0.038309,1.829263,0.001158,0.003750,-0.000313,-10.858860,66.962966,-39.578025,-2.86,-2.42,-3.80
9.740109,0.033521,1.824475,0.000493,0.001220,0.000353,-10.858860,66.962966,-39.578025,-2.90,-2.46,-3.85
9.740109,0.033521,1.824475,0.000493,0.001220,0.000353,-10.858860,66.962966,-39.578025,-2.93,-2.49,-3.90
9.725744,0.047886,1.819686,0.000226,0.000021,0.000220,-10.858860,66.962966,-39.578025,-2.97,-2.52,-3.94
9.735321,0.038309,1.795743,0.000093,-0.000511,0.000486,-11.582784,67.324928,-38.877529,-3.00,-2.56,-3.99
9.720954,0.043098,1.834052,0.001158,0.000953,-0.000712,-11.582784,67.324928,-38.877529,-3.04,-2.59,-4.04
9.720954,0.043098,1.834052,0.001158,0.000953,-0.000712,-11.582784,67.324928,-38.877529,-3.08,-2.62,-4.08
9.725744,0.038309,1.843629,0.000226,0.000687,0.000353,-11.582784,67.324928,-38.877529,-3.11,-2.66,-4.13
9.716166,0.028732,1.834052,0.000093,0.001220,0.000886,-11.582784,67.324928,-38.877529,-3.15,-2.69,-4.18
9.716166,0.028732,1.834052,0.000093,0.001220,0.000886,-11.582784,67.324928,-38.877529,-3.19,-2.72,-4.22
9.730532,0.033521,1.829263,-0.001105,-0.001310,-0.000446,-11.582784,67.324928,-38.877529,-3.22,-2.76,-4.27
9.735321,0.028732,1.857995,0.000759,-0.000112,-0.000180,-11.582784,67.324928,-38.877529,-3.26,-2.79,-4.31
9.735321,0.028732,1.857995,0.000759,-0.000112,-0.000180,-11.582784,67.324928,-38.877529,-3.29,-2.82,-4.36
9.725744,0.033521,1.824475,0.000093,0.001087,0.000886,-10.677879,67.505912,-40.453643,-3.33,-2.86,-4.41
9.730532,0.028732,1.834052,-0.000972,-0.000378,0.000486,-10.677879,67.505912,-40.453643,-3.37,-2.89,-4.45
9.730532,0.028732,1.834052,-0.000972,-0.000378,0.000486,-10.677879,67.505912,-40.453643,-3.40,-2.92,-4.49
9.735321,0.038309,1.834052,0.001558,0.001087,-0.000180,-10.677879,67.505912,-40.453643,-3.44,-2.96,-4.54
9.725744,0.028732,1.843629,-0.000439,-0.000112,-0.000180,-10.677879,67.505912,-40.453643,-3.47,-2.99,-4.58
9.725744,0.028732,1.843629,-0.000439,-0.000112,-0.000180,-10.677879,67.505912,-40.453643,-3.51,-3.03,-4.63
9.730532,0.038309,1.824475,-0.000706,-0.000112,0.000087,-10.677879,67.505912,-40.453643,-3.54,-3.06,-4.67
9.735321,0.023943,1.824475,-0.000839,-0.001710,0.000220,-10.677879,67.505912,-40.453643,-3.58,-3.09,-4.71
9.725744,0.043098,1.824475,-0.000040,-0.001976,0.000220,-11.763765,68.229835,-39.052654,-3.61,-3.13,-4.76
9.725744,0.043098,1.824475,-0.000040,-0.001976,0.000220,-11.763765,68.229835,-39.052654,-3.65,-3.16,-4.80
9.730532,0.033521,1.819686,-0.000040,-0.002376,-0.000446,-11.763765,68.229835,-39.052654,-3.68,-3.19,-4.85
9.735321,0.033521,1.834052,0.001025,0.000687,0.000220,-11.763765,68.229835,-39.052654,-3.72,-3.22,-4.89
9.735321,0.033521,1.834052,0.001025,0.000687,0.000220,-11.763765,68.229835,-39.052654,-3.75,-3.26,-4.93
9.725744,0.023943,1.838841,0.001292,0.000021,0.001285,-11.763765,68.229835,-39.052654,-3.79,-3.29,-4.98
9.735321,0.033521,1.843629,-0.003768,-0.004772,0.000353,-11.763765,68.229835,-39.052654,-3.82,-3.32,-5.02
9.735321,0.033521,1.843629,-0.003768,-0.004772,0.000353,-11.763765,68.229835,-39.052654,-3.86,-3.35,-5.06
9.720954,0.023943,1.819686,-0.000839,-0.000511,-0.000313,-11.763765,68.229835,-39.052654,-3.89,-3.39,-5.11
9.711378,0.033521,1.829263,0.001425,0.002152,-0.000979,-10.677879,65.696098,-39.753147,-3.92,-3.42,-5.15
9.711378,0.033521,1.829263,0.001425,0.002152,-0.000979,-10.677879,65.696098,-39.753147,-3.96,-3.45,-5.19
9.735321,0.028732,1.843629,0.004221,0.005747,-0.000313,-10.677879,65.696098,-39.753147,-3.99,-3.48,-5.23
9.740109,0.028732,1.829263,0.000626,-0.000245,-0.000180,-10.677879,65.696098,-39.753147,-4.03,-3.52,-5.27
9.725744,0.028732,1.829263,-0.000040,-0.001843,0.000220,-10.677879,65.696098,-39.753147,-4.06,-3.55,-5.31
9.725744,0.028732,1.829263,-0.000040,-0.001843,0.000220,-10.677879,65.696098,-39.753147,-4.10,-3.58,-5.35
9.730532,0.038309,1.843629,0.001691,0.001619,0.000353,-10.677879,65.696098,-39.753147,-4.13,-3.61,-5.39
9.711378,0.023943,1.838841,0.000759,-0.001843,0.000353,-10.677879,65.696098,-39.753147,-4.16,-3.65,-5.43
9.711378,0.023943,1.838841,0.000759,-0.001843,0.000353,-10.677879,65.696098,-39.753147,-4.20,-3.68,-5.47
9.720954,0.038309,1.834052,0.001425,-0.000378,-0.000313,-10.677879,65.696098,-39.753147,-4.23,-3.71,-5.51
9.735321,0.047886,1.834052,0.003023,0.003350,0.000486,-10.134936,67.324928,-39.578025,-4.26,-3.74,-5.55
9.735321,0.047886,1.834052,0.003023,0.003350,0.000486,-10.134936,67.324928,-39.578025,-4.30,-3.78,-5.59
9.730532,0.038309,1.829263,-0.000306,-0.003041,0.000087,-10.134936,67.324928,-39.578025,-4.33,-3.81,-5.63
9.730532,0.023943,1.838841,0.000626,0.002152,-0.000979,-10.134936,67.324928,-39.578025,-4.36,-3.84,-5.67
9.730532,0.023943,1.838841,0.000626,0.002152,-0.000979,-10.134936,67.324928,-39.578025,-4.39,-3.87,-5.71
9.725744,0.038309,1.838841,0.000759,-0.001044,-0.000047,-10.134936,67.324928,-39.578025,-4.42,-3.90,-5.75
9.720954,0.028732,1.834052,0.001292,0.001619,0.000752,-10.134936,67.324928,-39.578025,-4.46,-3.93,-5.79
9.720954,0.028732,1.834052,0.001292,0.001619,0.000752,-10.134936,67.324928,-39.578025,-4.49,-3.96,-5.83
9.735321,0.038309,1.867572,0.001025,0.004016,0.000353,-10.134936,67.324928,-39.578025,-4.52,-3.99,-5.87
9.730532,0.047886,1.800531,-0.001372,-0.003973,0.000353,-10.134936,66.962966,-39.578025,-4.55,-4.02,-5.90
9.725744,0.038309,1.814897,0.001558,0.004416,0.000619,-10.134936,66.962966,-39.578025,-4.58,-4.06,-5.94
9.725744,0.038309,1.814897,0.001558,0.004416,0.000619,-10.134936,66.962966,-39.578025,-4.61,-4.09,-5.98
9.725744,0.028732,1.834052,0.002357,0.004282,0.001152,-10.134936,66.962966,-39.578025,-4.64,-4.12,-6.02
9.711378,0.023943,1.848418,-0.000573,-0.002908,0.000087,-10.134936,66.962966,-39.578025,-4.67,-4.15,-6.05
9.711378,0.023943,1.848418,-0.000573,-0.002908,0.000087,-10.134936,66.962966,-39.578025,-4.71,-4.18,-6.09
9.720954,0.023943,1.834052,0.000226,0.001752,-0.000180,-10.134936,66.962966,-39.578025,-4.74,-4.21,-6.13
9.720954,0.038309,1.829263,0.001025,-0.000112,-0.000047,-10.134936,66.962966,-39.578025,-4.77,-4.24,-6.16
9.720954,0.038309,1.829263,0.001025,-0.000112,-0.000047,-10.134936,66.962966,-39.578025,-4.80,-4.27,-6.20
9.735321,0.038309,1.834052,0.000626,-0.001044,-0.000712,-11.401803,65.696098,-39.753147,-4.83,-4.30,-6.23
9.735321,0.028732,1.834052,-0.000040,-0.000511,-0.000846,-11.401803,65.696098,-39.753147,-4.86,-4.33,-6.27
9.735321,0.028732,1.834052,-0.000040,-0.000511,-0.000846,-11.401803,65.696098,-39.753147,-4.89,-4.36,-6.31
9.740109,0.023943,1.834052,0.000493,0.000154,-0.000712,-11.401803,65.696098,-39.753147,-4.92,-4.39,-6.34
9.735321,0.028732,1.834052,0.000226,-0.001976,-0.000180,-11.401803,65.696098,-39.753147,-4.95,-4.42,-6.38
9.735321,0.028732,1.834052,0.000226,-0.001976,-0.000180,-11.401803,65.696098,-39.753147,-4.98,-4.45,-6.41
9.725744,0.023943,1.829263,-0.000439,0.000154,-0.000712,-11.401803,65.696098,-39.753147,-5.01,-4.47,-6.44
9.730532,0.033521,1.843629,0.000493,0.000421,0.000220,-11.401803,65.696098,-39.753147,-5.04,-4.50,-6.48
9.720954,0.043098,1.843629,0.000226,0.000421,0.000353,-11.401803,65.696098,-39.753147,-5.07,-4.53,-6.51
9.720954,0.043098,1.843629,0.000226,0.000421,0.000353,-11.401803,65.696098,-39.753147,-5.10,-4.56,-6.55
9.730532,0.038309,1.819686,-0.001105,-0.001044,0.000619,-11.039841,67.143951,-39.402900,-5.13,-4.59,-6.58
9.735321,0.047886,1.819686,0.000360,0.000021,-0.000047,-11.039841,67.143951,-39.402900,-5.16,-4.62,-6.61
9.735321,0.047886,1.819686,0.000360,0.000021,-0.000047,-11.039841,67.143951,-39.402900,-5.19,-4.65,-6.65
9.725744,0.028732,1.838841,0.000626,0.000554,-0.000313,-11.039841,67.143951,-39.402900,-5.22,-4.68,-6.68
9.725744,0.043098,1.829263,0.000493,0.000021,0.000486,-11.039841,67.143951,-39.402900,-5.24,-4.70,-6.71
9.725744,0.043098,1.829263,0.000493,0.000021,0.000486,-11.039841,67.143951,-39.402900,-5.27,-4.73,-6.74
9.720954,0.033521,1.834052,-0.000706,-0.001177,0.000619,-11.039841,67.143951,-39.402900,-5.30,-4.76,-6.78
9.716166,0.038309,1.838841,-0.000972,-0.002775,-0.000180,-11.039841,67.143951,-39.402900,-5.33,-4.79,-6.81
9.716166,0.038309,1.838841,-0.000972,-0.002775,-0.000180,-11.039841,67.143951,-39.402900,-5.36,-4.81,-6.84
9.711378,0.019155,1.843629,0.000493,0.000687,-0.000313,-11.401803,67.143951,-40.103397,-5.38,-4.84,-6.87
9.720954,0.033521,1.838841,0.000226,-0.001710,-0.000313,-11.401803,67.143951,-40.103397,-5.41,-4.87,-6.90
9.720954,0.033521,1.838841,0.000226,-0.001710,-0.000313,-11.401803,67.143951,-40.103397,-5.44,-4.90,-6.94
9.720954,0.033521,1.848418,0.002756,0.002551,-0.000180,-11.401803,67.143951,-40.103397,-5.47,-4.92,-6.97
9.725744,0.033521,1.838841,0.000759,0.002019,0.000220,-11.401803,67.143951,-40.103397,-5.49,-4.95,-7.00
9.725744,0.028732,1.834052,0.001558,0.000554,-0.000313,-11.401803,67.143951,-40.103397,-5.52,-4.98,-7.03
9.725744,0.028732,1.834052,0.001558,0.000554,-0.000313,-11.401803,67.143951,-40.103397,-5.55,-5.00,-7.06
9.711378,0.038309,1.843629,0.000626,-0.000644,0.000619,-11.401803,67.143951,-40.103397,-5.57,-5.03,-7.09
9.725744,0.043098,1.829263,-0.001505,-0.004506,-0.000313,-11.944746,67.324928,-38.877529,-5.60,-5.06,-7.12
9.725744,0.043098,1.829263,-0.001505,-0.004506,-0.000313,-11.944746,67.324928,-38.877529,-5.63,-5.08,-7.15
9.716166,0.023943,1.810109,-0.000706,-0.002642,-0.000846,-11.944746,67.324928,-38.877529,-5.65,-5.11,-7.18
9.725744,0.028732,1.814897,0.000360,-0.000778,-0.000579,-11.944746,67.324928,-38.877529,-5.68,-5.13,-7.21
9.725744,0.028732,1.814897,0.000360,-0.000778,-0.000579,-11.944746,67.324928,-38.877529,-5.70,-5.16,-7.24
9.706589,0.028732,1.838841,0.003289,0.004682,0.000486,-11.944746,67.324928,-38.877529,-5.73,-5.18,-7.27
9.740109,0.033521,1.834052,0.000892,0.001752,-0.000047,-11.944746,67.324928,-38.877529,-5.76,-5.21,-7.30
9.740109,0.033521,1.834052,0.000892,0.001752,-0.000047,-11.944746,67.324928,-38.877529,-5.78,-5.23,-7.33
9.725744,0.043098,1.834052,-0.000439,-0.002509,-0.000180,-11.944746,67.324928,-38.877529,-5.81,-5.26,-7.36
9.725744,0.047886,1.838841,0.001824,0.002152,0.000486,-11.944746,66.601005,-39.928272,-5.83,-5.28,-7.38
9.725744,0.047886,1.838841,0.001824,0.002152,0.000486,-11.944746,66.601005,-39.928272,-5.86,-5.31,-7.41
9.730532,0.033521,1.829263,0.002091,0.002019,-0.000180,-11.944746,66.601005,-39.928272,-5.88,-5.34,-7.44
9.735321,0.028732,1.824475,-0.000573,-0.001577,0.000220,-11.944746,66.601005,-39.928272,-5.91,-5.36,-7.47
9.720954,0.028732,1.843629,-0.000706,-0.000778,0.000619,-11.944746,66.601005,-39.928272,-5.93,-5.39,-7.49
9.720954,0.028732,1.843629,-0.000706,-0.000778,0.000619,-11.944746,66.601005,-39.928272,-5.96,-5.41,-7.52
9.716166,0.047886,1.843629,0.002623,0.005747,-0.000313,-11.944746,66.601005,-39.928272,-5.98,-5.43,-7.55
9.730532,0.023943,1.881938,0.004354,0.004416,0.001152,-11.944746,66.601005,-39.928272,-6.01,-5.46,-7.58
9.730532,0.023943,1.881938,0.004354,0.004416,0.001152,-11.944746,66.601005,-39.928272,-6.03,-5.48,-7.60
9.725744,0.043098,1.829263,-0.004301,-0.012363,-0.000180,-11.944746,66.601005,-39.928272,-6.06,-5.51,-7.63
9.725744,0.047886,1.800531,-0.000040,0.002285,-0.001645,-11.401803,65.334136,-39.052654,-6.08,-5.53,-7.66
9.725744,0.047886,1.800531,-0.000040,0.002285,-0.001645,-11.401803,65.334136,-39.052654,-6.11,-5.56,-7.68
9.730532,0.028732,1.862784,0.003422,0.006413,-0.000047,-11.401803,65.334136,-39.052654,-6.13,-5.58,-7.71
9.725744,0.033521,1.819686,-0.001771,-0.010765,-0.000047,-11.401803,65.334136,-39.052654,-6.16,-5.61,-7.74
9.725744,0.033521,1.819686,-0.001771,-0.010765,-0.000047,-11.401803,65.334136,-39.052654,-6.18,-5.63,-7.76
9.725744,0.028732,1.814897,-0.000706,0.000288,-0.000846,-11.401803,65.334136,-39.052654,-6.20,-5.65,-7.79
9.720954,0.033521,1.886727,0.002890,0.008943,-0.000180,-11.401803,65.334136,-39.052654,-6.23,-5.68,-7.82
9.706589,0.038309,1.810109,-0.006165,-0.014227,0.000752,-11.401803,65.334136,-39.052654,-6.25,-5.70,-7.84
9.706589,0.038309,1.810109,-0.006165,-0.014227,0.000752,-11.401803,65.334136,-39.052654,-6.28,-5.73,-7.87
9.744898,0.033521,1.834052,0.001425,0.007878,-0.001378,-12.668670,66.962966,-40.278522,-6.30,-5.75,-7.89
9.725744,0.019155,1.800531,-0.001505,-0.004772,-0.000712,-12.668670,66.962966,-40.278522,-6.32,-5.77,-7.92
9.725744,0.019155,1.800531,-0.001505,-0.004772,-0.000712,-12.668670,66.962966,-40.278522,-6.35,-5.80,-7.94
9.735321,0.028732,1.838841,0.001025,0.004016,-0.000846,-12.668670,66.962966,-40.278522,-6.37,-5.82,-7.97
9.725744,0.033521,1.843629,0.000093,0.002818,0.000220,-12.668670,66.962966,-40.278522,-6.39,-5.84,-7.99
9.725744,0.033521,1.843629,0.000093,0.002818,0.000220,-12.668670,66.962966,-40.278522,-6.42,-5.86,-8.01
9.730532,0.038309,1.843629,-0.000040,0.000554,-0.000047,-12.668670,66.962966,-40.278522,-6.44,-5.89,-8.04
9.720954,0.028732,1.834052,0.000493,0.002019,-0.000180,-12.668670,66.962966,-40.278522,-6.46,-5.91,-8.06
9.720954,0.028732,1.834052,0.000493,0.002019,-0.000180,-12.668670,66.962966,-40.278522,-6.48,-5.93,-8.09
9.706589,0.038309,1.819686,-0.000573,-0.003175,-0.000446,-11.220822,66.601005,-38.877529,-6.51,-5.95,-8.11
9.716166,0.033521,1.848418,0.000626,0.002152,0.000087,-11.220822,66.601005,-38.877529,-6.53,-5.98,-8.13
9.716166,0.033521,1.848418,0.000626,0.002152,0.000087,-11.220822,66.601005,-38.877529,-6.55,-6.00,-8.16
9.720954,0.028732,1.824475,0.000093,-0.001976,0.000353,-11.220822,66.601005,-38.877529,-6.57,-6.02,-8.18
9.716166,0.047886,1.824475,-0.000040,-0.003441,0.000220,-11.220822,66.601005,-38.877529,-6.59,-6.04,-8.21
9.730532,0.047886,1.834052,0.000892,0.003883,-0.000180,-11.220822,66.601005,-38.877529,-6.61,-6.07,-8.23
9.730532,0.047886,1.834052,0.000892,0.003883,-0.000180,-11.220822,66.601005,-38.877529,-6.64,-6.09,-8.25
9.735321,0.033521,1.834052,-0.001771,-0.002908,-0.000313,-11.220822,66.601005,-38.877529,-6.66,-6.11,-8.28
9.725744,0.023943,1.824475,0.000360,0.000687,0.000353,-11.220822,66.601005,-38.877529,-6.68,-6.13,-8.30
9.725744,0.023943,1.824475,0.000360,0.000687,0.000353,-11.220822,66.601005,-38.877529,-6.70,-6.15,-8.32
9.725744,0.038309,1.829263,0.002357,0.004016,-0.000446,-12.125727,66.420028,-39.402900,-6.72,-6.17,-8.35
9.730532,0.023943,1.824475,0.001025,-0.001177,0.000220,-12.125727,66.420028,-39.402900,-6.74,-6.20,-8.37
9.730532,0.023943,1.824475,0.001025,-0.001177,0.000220,-12.125727,66.420028,-39.402900,-6.76,-6.22,-8.39
9.725744,0.033521,1.834052,-0.000839,-0.003840,-0.000313,-12.125727,66.420028,-39.402900,-6.78,-6.24,-8.42
9.735321,0.019155,1.843629,0.000626,0.003217,-0.000712,-12.125727,66.420028,-39.402900,-6.81,-6.26,-8.44
9.735321,0.019155,1.843629,0.000626,0.003217,-0.000712,-12.125727,66.420028,-39.402900,-6.83,-6.28,-8.46
9.725744,0.014366,1.814897,-0.000972,-0.001177,-0.000180,-12.125727,66.420028,-39.402900,-6.85,-6.30,-8.48
9.744898,0.043098,1.838841,-0.000573,-0.002242,0.000220,-12.125727,66.420028,-39.402900,-6.87,-6.32,-8.50
9.744898,0.043098,1.838841,-0.000573,-0.002242,0.000220,-12.125727,66.420028,-39.402900,-6.89,-6.34,-8.53
9.730532,0.043098,1.834052,0.000493,0.001353,0.000486,-11.944746,66.962966,-39.227775,-6.91,-6.37,-8.55
9.711378,0.023943,1.814897,-0.000839,-0.003041,0.000353,-11.944746,66.962966,-39.227775,-6.93,-6.39,-8.57
9.720954,0.043098,1.848418,0.000226,-0.001044,0.000752,-11.944746,66.962966,-39.227775,-6.95,-6.41,-8.59
9.720954,0.043098,1.848418,0.000226,-0.001044,0.000752,-11.944746,66.962966,-39.227775,-6.97,-6.43,-8.61
9.725744,0.028732,1.834052,0.001558,0.001220,0.001152,-11.944746,66.962966,-39.227775,-6.99,-6.45,-8.63
9.740109,0.038309,1.848418,0.000360,-0.001710,0.000353,-11.944746,66.962966,-39.227775,-7.01,-6.47,-8.65
9.740109,0.038309,1.848418,0.000360,-0.001710,0.000353,-11.944746,66.962966,-39.227775,-7.03,-6.49,-8.68
9.720954,0.043098,1.848418,0.000360,0.000554,0.000220,-11.944746,66.962966,-39.227775,-7.05,-6.51,-8.70
9.730532,0.028732,1.805320,-0.001505,-0.002775,0.000353,-11.039841,67.505912,-40.103397,-7.07,-6.53,-8.72
9.730532,0.028732,1.805320,-0.001505,-0.002775,0.000353,-11.039841,67.505912,-40.103397,-7.09,-6.55,-8.74
9.720954,0.038309,1.829263,-0.000439,-0.001310,-0.000446,-11.039841,67.505912,-40.103397,-7.11,-6.57,-8.76
9.735321,0.043098,1.824475,0.000360,0.000820,0.000619,-11.039841,67.505912,-40.103397,-7.13,-6.59,-8.78
9.735321,0.043098,1.824475,0.000360,0.000820,0.000619,-11.039841,67.505912,-40.103397,-7.15,-6.61,-8.80
9.725744,0.038309,1.843629,-0.001904,-0.000511,0.000353,-11.039841,67.505912,-40.103397,-7.17,-6.63,-8.82
9.744898,0.023943,1.824475,-0.000439,0.000288,0.000886,-11.039841,67.505912,-40.103397,-7.18,-6.65,-8.84
9.744898,0.023943,1.824475,-0.000439,0.000288,0.000886,-11.039841,67.505912,-40.103397,-7.20,-6.67,-8.86
9.725744,0.033521,1.838841,-0.000573,0.000554,0.000353,-11.039841,67.505912,-40.103397,-7.22,-6.69,-8.88
9.720954,0.038309,1.843629,-0.001238,-0.000778,0.000886,-12.487689,67.867874,-38.001907,-7.24,-6.71,-8.90
9.730532,0.038309,1.834052,-0.001505,-0.002109,0.000752,-12.487689,67.867874,-38.001907,-7.26,-6.72,-8.92
9.730532,0.038309,1.834052,-0.001505,-0.002109,0.000752,-12.487689,67.867874,-38.001907,-7.28,-6.74,-8.94
9.744898,0.028732,1.834052,-0.000439,-0.000112,0.000087,-12.487689,67.867874,-38.001907,-7.30,-6.76,-8.96
9.720954,0.023943,1.829263,-0.000173,-0.001177,-0.000180,-12.487689,67.867874,-38.001907,-7.32,-6.78,-8.98
9.720954,0.023943,1.829263,-0.000173,-0.001177,-0.000180,-12.487689,67.867874,-38.001907,-7.33,-6.80,-9.00
9.716166,0.038309,1.848418,0.000226,-0.001044,-0.000446,-12.487689,67.867874,-38.001907,-7.35,-6.82,-9.02
9.725744,0.014366,1.848418,0.000493,-0.000112,-0.000846,-12.487689,67.867874,-38.001907,-7.37,-6.84,-9.04
9.725744,0.014366,1.848418,0.000493,-0.000112,-0.000846,-12.487689,67.867874,-38.001907,-7.39,-6.86,-9.06
9.730532,0.043098,1.838841,0.000626,0.000421,-0.000313,-12.487689,67.867874,-38.001907,-7.41,-6.88,-9.08
9.735321,0.028732,1.819686,0.000093,-0.001577,0.000220,-11.220822,65.877082,-39.227775,-7.43,-6.89,-9.10
9.735321,0.028732,1.819686,0.000093,-0.001577,0.000220,-11.220822,65.877082,-39.227775,-7.44,-6.91,-9.12
9.711378,0.023943,1.829263,0.000626,0.001353,-0.000180,-11.220822,65.877082,-39.227775,-7.46,-6.93,-9.14
9.725744,0.038309,1.829263,-0.000306,-0.000511,-0.000180,-11.220822,65.877082,-39.227775,-7.48,-6.95,-9.16
9.725744,0.038309,1.829263,-0.000306,-0.000511,-0.000180,-11.220822,65.877082,-39.227775,-7.50,-6.97,-9.17
9.720954,0.028732,1.834052,-0.001105,-0.001976,-0.000180,-11.220822,65.877082,-39.227775,-7.52,-6.99,-9.19
9.720954,0.028732,1.834052,-0.000040,0.002019,-0.000579,-11.220822,65.877082,-39.227775,-7.53,-7.01,-9.21
9.711378,0.033521,1.838841,0.000093,0.001886,0.000752,-11.220822,65.877082,-39.227775,-7.55,-7.03,-9.23
9.711378,0.033521,1.838841,0.000093,0.001886,0.000752,-11.220822,65.877082,-39.227775,-7.57,-7.04,-9.25
9.716166,0.023943,1.819686,0.000626,0.002019,0.000752,-11.401803,66.781990,-40.103397,-7.59,-7.06,-9.27
9.749687,0.023943,1.829263,0.001824,0.001220,0.000752,-11.401803,66.781990,-40.103397,-7.60,-7.08,-9.29
9.749687,0.023943,1.829263,0.001824,0.001220,0.000752,-11.401803,66.781990,-40.103397,-7.62,-7.10,-9.30
9.740109,0.038309,1.838841,0.000759,0.000687,0.000087,-11.401803,66.781990,-40.103397,-7.64,-7.12,-9.32
9.725744,0.038309,1.857995,0.000759,0.001087,-0.000047,-11.401803,66.781990,-40.103397,-7.66,-7.13,-9.34
9.725744,0.038309,1.857995,0.000759,0.001087,-0.000047,-11.401803,66.781990,-40.103397,-7.67,-7.15,-9.36
9.735321,0.033521,1.848418,0.001025,-0.001710,0.000486,-11.401803,66.781990,-40.103397,-7.69,-7.17,-9.37
9.716166,0.023943,1.857995,0.001025,0.001087,0.000486,-11.401803,66.781990,-40.103397,-7.71,-7.19,-9.39
9.716166,0.023943,1.857995,0.001025,0.001087,0.000486,-11.401803,66.781990,-40.103397,-7.73,-7.21,-9.41
9.735321,0.033521,1.814897,-0.000173,-0.003840,0.000220,-12.487689,66.781990,-41.154140,-7.74,-7.22,-9.43
9.735321,0.038309,1.814897,-0.000439,-0.001044,-0.000180,-12.487689,66.781990,-41.154140,-7.76,-7.24,-9.44
9.735321,0.038309,1.814897,-0.000439,-0.001044,-0.000180,-12.487689,66.781990,-41.154140,-7.78,-7.26,-9.46
9.725744,0.023943,1.829263,0.000626,0.000687,-0.000579,-12.487689,66.781990,-41.154140,-7.79,-7.28,-9.48
9.720954,0.067041,1.819686,0.001558,0.001220,-0.000313,-12.487689,66.781990,-41.154140,-7.81,-7.29,-9.49
9.744898,0.043098,1.843629,0.002490,0.000820,0.000220,-12.487689,66.781990,-41.154140,-7.83,-7.31,-9.51
9.744898,0.043098,1.843629,0.002490,0.000820,0.000220,-12.487689,66.781990,-41.154140,-7.84,-7.33,-9.52
9.725744,0.047886,1.838841,0.001957,0.002152,0.000886,-12.487689,66.781990,-41.154140,-7.86,-7.34,-9.54
9.725744,0.028732,1.829263,0.002091,0.001752,-0.000313,-12.306708,66.239044,-39.928272,-7.88,-7.36,-9.56
9.725744,0.028732,1.829263,0.002091,0.001752,-0.000313,-12.306708,66.239044,-39.928272,-7.89,-7.38,-9.57
9.725744,0.052675,1.829263,0.000493,-0.001443,-0.000047,-12.306708,66.239044,-39.928272,-7.91,-7.40,-9.59
9.744898,0.038309,1.829263,0.000493,0.000953,0.000087,-12.306708,66.239044,-39.928272,-7.93,-7.41,-9.61
9.744898,0.038309,1.829263,0.000493,0.000953,0.000087,-12.306708,66.239044,-39.928272,-7.94,-7.43,-9.62
9.730532,0.043098,1.834052,0.000626,0.002019,-0.000047,-12.306708,66.239044,-39.928272,-7.96,-7.45,-9.64
9.725744,0.028732,1.824475,-0.000306,0.000021,-0.000846,-12.306708,66.239044,-39.928272,-7.98,-7.46,-9.66
9.725744,0.028732,1.824475,-0.000306,0.000021,-0.000846,-12.306708,66.239044,-39.928272,-7.99,-7.48,-9.67
9.730532,0.023943,1.857995,0.000493,0.000554,0.000353,-12.306708,66.239044,-39.928272,-8.01,-7.50,-9.69
9.716166,0.033521,1.838841,-0.000306,-0.003840,-0.000180,-12.306708,66.239044,-39.928272,-8.03,-7.52,-9.71
9.716166,0.033521,1.838841,-0.000306,-0.003840,-0.000180,-12.306708,66.239044,-39.928272,-8.04,-7.53,-9.72
9.725744,0.047886,1.829263,0.000493,0.000953,0.000353,-11.039841,65.334136,-39.753147,-8.06,-7.55,-9.74
9.711378,0.023943,1.838841,0.000892,-0.000245,0.000087,-11.039841,65.334136,-39.753147,-8.08,-7.57,-9.75
9.735321,0.038309,1.834052,0.000226,-0.001177,0.000087,-11.039841,65.334136,-39.753147,-8.09,-7.58,-9.77
9.735321,0.038309,1.834052,0.000226,-0.001177,0.000087,-11.039841,65.334136,-39.753147,-8.11,-7.60,-9.79
9.716166,0.033521,1.853207,0.000493,0.001619,0.000087,-11.039841,65.334136,-39.753147,-8.12,-7.62,-9.80
9.730532,0.038309,1.843629,0.000093,-0.000245,-0.000846,-11.039841,65.334136,-39.753147,-8.14,-7.63,-9.82
9.730532,0.038309,1.843629,0.000093,-0.000245,-0.000846,-11.039841,65.334136,-39.753147,-8.16,-7.65,-9.83
9.735321,0.023943,1.838841,0.000493,0.001619,-0.000579,-11.039841,65.334136,-39.753147,-8.17,-7.67,-9.85
9.725744,0.033521,1.819686,0.000493,0.000421,-0.000047,-12.487689,67.505912,-40.103397,-8.19,-7.68,-9.86
9.725744,0.033521,1.819686,0.000493,0.000421,-0.000047,-12.487689,67.505912,-40.103397,-8.20,-7.70,-9.88
9.720954,0.043098,1.829263,0.000626,-0.000911,0.000353,-12.487689,67.505912,-40.103397,-8.22,-7.72,-9.89
9.730532,0.033521,1.838841,-0.000040,-0.000778,0.000353,-12.487689,67.505912,-40.103397,-8.23,-7.73,-9.91
9.730532,0.033521,1.838841,-0.000040,-0.000778,0.000353,-12.487689,67.505912,-40.103397,-8.25,-7.75,-9.93
9.725744,0.033521,1.834052,0.000093,0.000288,-0.000446,-12.487689,67.505912,-40.103397,-8.26,-7.76,-9.94
9.716166,0.023943,1.843629,0.000626,-0.001310,0.000752,-12.487689,67.505912,-40.103397,-8.28,-7.78,-9.96
9.716166,0.023943,1.843629,0.000626,-0.001310,0.000752,-12.487689,67.505912,-40.103397,-8.30,-7.80,-9.97
9.730532,0.028732,1.824475,-0.000573,-0.000911,0.000486,-12.487689,67.505912,-40.103397,-8.31,-7.81,-9.99
9.730532,0.047886,1.834052,-0.000306,-0.000511,0.000353,-12.487689,66.420028,-40.803894,-8.33,-7.83,-10.00
9.720954,0.043098,1.819686,-0.000040,0.000154,-0.000446,-12.487689,66.420028,-40.803894,-8.34,-7.84,-10.01
9.720954,0.043098,1.819686,-0.000040,0.000154,-0.000446,-12.487689,66.420028,-40.803894,-8.36,-7.86,-10.03
9.716166,0.033521,1.848418,-0.000839,-0.000245,-0.000047,-12.487689,66.420028,-40.803894,-8.37,-7.87,-10.04
9.730532,0.038309,1.853207,0.000493,-0.000112,0.001152,-12.487689,66.420028,-40.803894,-8.39,-7.89,-10.06
9.730532,0.038309,1.853207,0.000493,-0.000112,0.001152,-12.487689,66.420028,-40.803894,-8.40,-7.91,-10.07
9.725744,0.023943,1.848418,0.000626,0.000021,0.000353,-12.487689,66.420028,-40.803894,-8.42,-7.92,-10.09
9.720954,0.023943,1.838841,0.000093,-0.002242,0.001019,-12.487689,66.420028,-40.803894,-8.43,-7.94,-10.10
9.720954,0.023943,1.838841,0.000093,-0.002242,0.001019,-12.487689,66.420028,-40.803894,-8.45,-7.95,-10.12
9.735321,0.019155,1.843629,-0.000839,-0.001843,0.000619,-12.487689,66.420028,-40.803894,-8.46,-7.97,-10.13
9.725744,0.033521,1.834052,-0.000839,-0.001177,-0.000180,-12.306708,66.601005,-38.877529,-8.48,-7.98,-10.14
9.725744,0.033521,1.834052,-0.000839,-0.001177,-0.000180,-12.306708,66.601005,-38.877529,-8.49,-8.00,-10.16
9.735321,0.028732,1.834052,0.000360,-0.001443,-0.000313,-12.306708,66.601005,-38.877529,-8.51,-8.02,-10.17
9.730532,0.033521,1.834052,-0.000573,-0.001843,-0.000047,-12.306708,66.601005,-38.877529,-8.52,-8.03,-10.19
9.720954,0.033521,1.824475,0.000626,0.001886,0.000619,-12.306708,66.601005,-38.877529,-8.54,-8.05,-10.20
9.720954,0.033521,1.824475,0.000626,0.001886,0.000619,-12.306708,66.601005,-38.877529,-8.55,-8.06,-10.22
9.725744,0.033521,1.848418,-0.000706,-0.002509,0.000619,-12.306708,66.601005,-38.877529,-8.57,-8.08,-10.23
9.725744,0.033521,1.853207,0.001292,-0.002642,-0.000579,-12.306708,66.601005,-38.877529,-8.58,-8.09,-10.25
9.725744,0.033521,1.853207,0.001292,-0.002642,-0.000579,-12.306708,66.601005,-38.877529,-8.60,-8.11,-10.26
9.720954,0.057464,1.805320,0.001025,0.000154,0.000486,-12.125727,66.420028,-40.103397,-8.61,-8.12,-10.27
9.735321,0.033521,1.834052,0.004221,0.006147,-0.000712,-12.125727,66.420028,-40.103397,-8.62,-8.14,-10.29
9.735321,0.033521,1.834052,0.004221,0.006147,-0.000712,-12.125727,66.420028,-40.103397,-8.64,-8.15,-10.30
9.720954,0.038309,1.838841,0.000892,-0.000644,-0.000313,-12.125727,66.420028,-40.103397,-8.65,-8.17,-10.32
9.720954,0.038309,1.848418,0.000759,-0.000245,0.000486,-12.125727,66.420028,-40.103397,-8.67,-8.18,-10.33
9.720954,0.038309,1.848418,0.000759,-0.000245,0.000486,-12.125727,66.420028,-40.103397,-8.68,-8.20,-10.34
9.720954,0.028732,1.843629,0.000759,0.000288,0.000886,-12.125727,66.420028,-40.103397,-8.70,-8.21,-10.36
9.730532,0.028732,1.872361,-0.000040,-0.002509,0.000752,-12.125727,66.420028,-40.103397,-8.71,-8.23,-10.37
9.735321,0.028732,1.862784,0.000626,0.003617,0.000353,-11.220822,65.877082,-39.578025,-8.72,-8.24,-10.38
9.735321,0.028732,1.862784,0.000626,0.003617,0.000353,-11.220822,65.877082,-39.578025,-8.74,-8.26,-10.40
9.735321,0.043098,1.814897,0.000759,0.000021,0.000353,-11.220822,65.877082,-39.578025,-8.75,-8.27,-10.41
9.725744,0.028732,1.819686,0.000759,-0.000245,-0.000446,-11.220822,65.877082,-39.578025,-8.77,-8.29,-10.43
9.725744,0.028732,1.819686,0.000759,-0.000245,-0.000446,-11.220822,65.877082,-39.578025,-8.78,-8.30,-10.44
9.716166,0.038309,1.867572,0.000226,-0.000911,-0.000313,-11.220822,65.877082,-39.578025,-8.79,-8.32,-10.45
9.740109,0.038309,1.838841,0.000493,-0.001577,-0.000313,-11.220822,65.877082,-39.578025,-8.81,-8.33,-10.47
9.740109,0.038309,1.838841,0.000493,-0.001577,-0.000313,-11.220822,65.877082,-39.578025,-8.82,-8.35,-10.48
9.740109,0.038309,1.824475,0.000892,-0.000911,0.000353,-11.220822,65.877082,-39.578025,-8.83,-8.36,-10.49
9.730532,0.033521,1.838841,-0.000173,-0.000245,0.000486,-12.125727,66.420028,-39.052654,-8.85,-8.38,-10.51
9.730532,0.033521,1.838841,-0.000173,-0.000245,0.000486,-12.125727,66.420028,-39.052654,-8.86,-8.39,-10.52
9.720954,0.033521,1.848418,0.001158,0.001752,0.000486,-12.125727,66.420028,-39.052654,-8.88,-8.40,-10.53
9.730532,0.033521,1.834052,-0.000439,-0.002642,0.000087,-12.125727,66.420028,-39.052654,-8.89,-8.42,-10.55
9.720954,0.038309,1.824475,0.000493,-0.000112,-0.000579,-12.125727,66.420028,-39.052654,-8.90,-8.43,-10.56
9.720954,0.038309,1.824475,0.000493,-0.000112,-0.000579,-12.125727,66.420028,-39.052654,-8.92,-8.45,-10.57
9.706589,0.043098,1.848418,-0.000173,0.002685,0.000353,-12.125727,66.420028,-39.052654,-8.93,-8.46,-10.59
9.730532,0.038309,1.843629,0.000226,-0.000644,0.000752,-12.125727,66.420028,-39.052654,-8.94,-8.48,-10.60
9.730532,0.038309,1.843629,0.000226,-0.000644,0.000752,-12.125727,66.420028,-39.052654,-8.96,-8.49,-10.61
9.735321,0.033521,1.834052,-0.000040,-0.001443,0.000353,-12.125727,66.420028,-39.052654,-8.97,-8.51,-10.63
9.725744,0.043098,1.819686,0.001158,0.002418,-0.000047,-11.039841,68.229835,-39.402900,-8.98,-8.52,-10.64
9.725744,0.043098,1.819686,0.001158,0.002418,-0.000047,-11.039841,68.229835,-39.402900,-9.00,-8.53,-10.65
9.740109,0.038309,1.838841,0.000626,0.001220,0.000087,-11.039841,68.229835,-39.402900,-9.01,-8.55,-10.66
9.725744,0.038309,1.834052,-0.000173,-0.001710,0.000220,-11.039841,68.229835,-39.402900,-9.02,-8.56,-10.68
9.725744,0.038309,1.834052,-0.000173,-0.001710,0.000220,-11.039841,68.229835,-39.402900,-9.04,-8.58,-10.69
9.720954,0.033521,1.843629,0.000226,0.000687,0.000087,-11.039841,68.229835,-39.402900,-9.05,-8.59,-10.70
9.725744,0.019155,1.843629,-0.000839,-0.001177,-0.000446,-11.039841,68.229835,-39.402900,-9.06,-8.60,-10.72
9.720954,0.043098,1.834052,-0.000173,0.000820,-0.000180,-11.039841,68.229835,-39.402900,-9.07,-8.62,-10.73
9.720954,0.043098,1.834052,-0.000173,0.000820,-0.000180,-11.039841,68.229835,-39.402900,-9.09,-8.63,-10.74
9.730532,0.038309,1.819686,0.000093,-0.000511,0.000619,-12.306708,67.324928,-39.928272,-9.10,-8.64,-10.75
9.716166,0.047886,1.834052,0.001425,0.000021,-0.000313,-12.306708,67.324928,-39.928272,-9.11,-8.66,-10.77
9.716166,0.047886,1.834052,0.001425,0.000021,-0.000313,-12.306708,67.324928,-39.928272,-9.13,-8.67,-10.78
9.730532,0.033521,1.834052,0.000759,-0.001710,-0.000180,-12.306708,67.324928,-39.928272,-9.14,-8.68,-10.79
9.730532,0.038309,1.824475,0.001158,0.002152,-0.000313,-12.306708,67.324928,-39.928272,-9.15,-8.70,-10.80
9.730532,0.038309,1.824475,0.001158,0.002152,-0.000313,-12.306708,67.324928,-39.928272,-9.16,-8.71,-10.82
9.740109,0.038309,1.838841,0.000892,-0.000378,-0.000313,-12.306708,67.324928,-39.928272,-9.18,-8.73,-10.83
9.720954,0.019155,1.848418,0.000626,0.002152,-0.000313,-12.306708,67.324928,-39.928272,-9.19,-8.74,-10.84
9.720954,0.019155,1.848418,0.000626,0.002152,-0.000313,-12.306708,67.324928,-39.928272,-9.20,-8.75,-10.85
9.725744,0.028732,1.838841,0.000093,-0.002509,0.000087,-11.220822,65.877082,-39.578025,-9.22,-8.77,-10.86
9.720954,0.043098,1.843629,0.000759,0.000554,0.000619,-11.220822,65.877082,-39.578025,-9.23,-8.78,-10.88
9.725744,0.047886,1.857995,0.000759,0.001752,0.000486,-11.220822,65.877082,-39.578025,-9.24,-8.79,-10.89
9.725744,0.047886,1.857995,0.000759,0.001752,0.000486,-11.220822,65.877082,-39.578025,-9.25,-8.81,-10.90
9.720954,0.043098,1.853207,-0.000573,-0.001177,0.000087,-11.220822,65.877082,-39.578025,-9.27,-8.82,-10.91
9.735321,0.028732,1.853207,-0.000173,-0.002376,-0.000180,-11.220822,65.877082,-39.578025,-9.28,-8.83,-10.92
9.735321,0.028732,1.853207,-0.000173,-0.002376,-0.000180,-11.220822,65.877082,-39.578025,-9.29,-8.85,-10.94
9.730532,0.038309,1.853207,0.001025,0.000554,0.000220,-11.220822,65.877082,-39.578025,-9.30,-8.86,-10.95
9.725744,0.033521,1.829263,-0.000439,0.001087,0.000220,-11.220822,65.877082,-39.578025,-9.32,-8.87,-10.96
9.725744,0.033521,1.829263,-0.000439,0.001087,0.000220,-11.220822,65.877082,-39.578025,-9.33,-8.89,-10.97
9.725744,0.019155,1.814897,-0.000573,-0.001044,0.001418,-12.125727,67.143951,-39.402900,-9.34,-8.90,-10.98
9.730532,0.023943,1.810109,0.000759,0.001486,0.001152,-12.125727,67.143951,-39.402900,-9.35,-8.92,-11.00
9.730532,0.023943,1.810109,0.000759,0.001486,0.001152,-12.125727,67.143951,-39.402900,-9.37,-8.93,-11.01
9.730532,0.033521,1.834052,0.000493,0.000021,-0.000313,-12.125727,67.143951,-39.402900,-9.38,-8.94,-11.02
9.730532,0.043098,1.857995,0.000626,-0.001310,-0.000579,-12.125727,67.143951,-39.402900,-9.39,-8.95,-11.03
9.720954,0.043098,1.848418,0.000626,0.000021,-0.000979,-12.125727,67.143951,-39.402900,-9.40,-8.97,-11.04
9.720954,0.043098,1.848418,0.000626,0.000021,-0.000979,-12.125727,67.143951,-39.402900,-9.42,-8.98,-11.05
9.725744,0.057464,1.834052,-0.000573,0.000154,0.000087,-12.125727,67.143951,-39.402900,-9.43,-8.99,-11.07
9.740109,0.043098,1.829263,0.000892,0.000154,-0.000180,-11.401803,67.867874,-39.753147,-9.44,-9.01,-11.08
9.740109,0.043098,1.829263,0.000892,0.000154,-0.000180,-11.401803,67.867874,-39.753147,-9.45,-9.02,-11.09
9.720954,0.033521,1.834052,0.000093,-0.001443,0.000752,-11.401803,67.867874,-39.753147,-9.46,-9.03,-11.10
9.735321,0.038309,1.834052,0.000093,-0.000511,0.000752,-11.401803,67.867874,-39.753147,-9.48,-9.05,-11.11
9.735321,0.038309,1.834052,0.000093,-0.000511,0.000752,-11.401803,67.867874,-39.753147,-9.49,-9.06,-11.12
9.725744,0.038309,1.867572,0.000093,0.000820,0.000087,-11.401803,67.867874,-39.753147,-9.50,-9.07,-11.13
9.725744,0.038309,1.838841,0.000093,0.000154,-0.000180,-11.401803,67.867874,-39.753147,-9.51,-9.08,-11.15
9.725744,0.038309,1.838841,0.000093,0.000154,-0.000180,-11.401803,67.867874,-39.753147,-9.52,-9.10,-11.16
9.730532,0.014366,1.857995,0.000493,0.001087,0.000486,-11.401803,67.867874,-39.753147,-9.53,-9.11,-11.17
9.740109,0.047886,1.824475,0.000759,-0.000511,0.000353,-10.496898,65.877082,-37.826786,-9.55,-9.12,-11.18
9.730532,0.019155,1.843629,0.000093,0.002551,0.000619,-10.496898,65.877082,-37.826786,-9.56,-9.14,-11.19
9.730532,0.019155,1.843629,0.000093,0.002551,0.000619,-10.496898,65.877082,-37.826786,-9.57,-9.15,-11.20
9.720954,0.033521,1.853207,-0.000573,-0.000511,0.000353,-10.496898,65.877082,-37.826786,-9.58,-9.16,-11.22
9.730532,0.033521,1.829263,-0.000306,-0.001976,0.000220,-10.496898,65.877082,-37.826786,-9.59,-9.17,-11.23
9.730532,0.033521,1.829263,-0.000306,-0.001976,0.000220,-10.496898,65.877082,-37.826786,-9.61,-9.19,-11.24
9.735321,0.028732,1.857995,-0.000040,0.001886,-0.000846,-10.496898,65.877082,-37.826786,-9.62,-9.20,-11.25
9.730532,0.038309,1.838841,-0.000040,-0.002642,-0.000446,-10.496898,65.877082,-37.826786,-9.63,-9.21,-11.26
9.730532,0.038309,1.838841,-0.000040,-0.002642,-0.000446,-10.496898,65.877082,-37.826786,-9.64,-9.23,-11.27
9.730532,0.052675,1.838841,0.000626,0.002685,-0.000047,-13.392594,66.962966,-39.928272,-9.65,-9.24,-11.28
9.735321,0.043098,1.834052,-0.000040,-0.000778,0.000220,-13.392594,66.962966,-39.928272,-9.67,-9.25,-11.30
9.735321,0.043098,1.834052,-0.000040,-0.000778,0.000220,-13.392594,66.962966,-39.928272,-9.68,-9.26,-11.31
9.730532,0.028732,1.834052,-0.000306,-0.001177,-0.000313,-13.392594,66.962966,-39.928272,-9.69,-9.28,-11.32
9.725744,0.028732,1.843629,-0.000306,-0.000378,-0.000047,-13.392594,66.962966,-39.928272,-9.70,-9.29,-11.33
9.735321,0.023943,1.857995,-0.000706,-0.001044,0.000752,-13.392594,66.962966,-39.928272,-9.71,-9.30,-11.34
9.735321,0.023943,1.857995,-0.000706,-0.001044,0.000752,-13.392594,66.962966,-39.928272,-9.72,-9.31,-11.35
9.720954,0.023943,1.843629,-0.000706,-0.000644,-0.000446,-13.392594,66.962966,-39.928272,-9.74,-9.33,-11.36
9.730532,0.038309,1.843629,-0.000173,-0.000644,0.000220,-13.392594,66.962966,-39.928272,-9.75,-9.34,-11.37
9.730532,0.038309,1.843629,-0.000173,-0.000644,0.000220,-13.392594,66.962966,-39.928272,-9.76,-9.35,-11.38
9.720954,0.033521,1.829263,-0.000972,-0.000511,-0.000180,-11.944746,65.877082,-39.578025,-9.77,-9.36,-11.39
9.725744,0.028732,1.838841,0.001691,0.001619,-0.000180,-11.944746,65.877082,-39.578025,-9.78,-9.38,-11.40
9.725744,0.028732,1.838841,0.001691,0.001619,-0.000180,-11.944746,65.877082,-39.578025,-9.79,-9.39,-11.41
9.730532,0.033521,1.843629,0.002623,0.003750,-0.000579,-11.944746,65.877082,-39.578025,-9.81,-9.40,-11.42
9.720954,0.047886,1.843629,-0.000173,-0.003041,-0.000712,-11.944746,65.877082,-39.578025,-9.82,-9.41,-11.43
9.706589,0.038309,1.848418,0.000626,-0.000511,-0.000180,-11.944746,65.877082,-39.578025,-9.83,-9.43,-11.44
9.706589,0.038309,1.848418,0.000626,-0.000511,-0.000180,-11.944746,65.877082,-39.578025,-9.84,-9.44,-11.46
9.730532,0.023943,1.838841,0.001824,-0.000245,-0.000313,-11.944746,65.877082,-39.578025,-9.85,-9.45,-11.47
9.720954,0.019155,1.800531,0.001158,-0.001577,-0.000180,-10.315917,66.058059,-39.753147,-9.86,-9.46,-11.48
9.720954,0.019155,1.800531,0.001158,-0.001577,-0.000180,-10.315917,66.058059,-39.753147,-9.88,-9.48,-11.49
9.716166,0.043098,1.805320,0.000493,0.001486,-0.000180,-10.315917,66.058059,-39.753147,-9.89,-9.49,-11.50
9.720954,0.038309,1.843629,0.002490,0.000421,-0.000446,-10.315917,66.058059,-39.753147,-9.90,-9.50,-11.51
9.720954,0.038309,1.843629,0.002490,0.000421,-0.000446,-10.315917,66.058059,-39.753147,-9.91,-9.51,-11.52
9.725744,0.043098,1.829263,-0.000972,-0.005438,0.000220,-10.315917,66.058059,-39.753147,-9.92,-9.52,-11.53
9.720954,0.038309,1.824475,-0.001638,-0.001044,-0.000180,-10.315917,66.058059,-39.753147,-9.93,-9.54,-11.54
9.720954,0.038309,1.824475,-0.001638,-0.001044,-0.000180,-10.315917,66.058059,-39.753147,-9.94,-9.55,-11.55
9.720954,0.023943,1.838841,-0.000706,0.002818,-0.001645,-10.315917,66.058059,-39.753147,-9.95,-9.56,-11.56
9.730532,0.052675,1.819686,0.000093,0.000687,0.000353,-12.306708,66.601005,-39.928272,-9.96,-9.57,-11.57
9.720954,0.033521,1.829263,-0.000706,-0.000112,0.000886,-12.306708,66.601005,-39.928272,-9.98,-9.58,-11.58
9.720954,0.033521,1.829263,-0.000706,-0.000112,0.000886,-12.306708,66.601005,-39.928272,-9.99,-9.60,-11.59
9.740109,0.052675,1.810109,-0.000839,0.000021,0.000087,-12.306708,66.601005,-39.928272,-10.00,-9.61,-11.60
9.730532,0.019155,1.834052,-0.001505,-0.001443,0.000087,-12.306708,66.601005,-39.928272,-10.01,-9.62,-11.61
9.730532,0.019155,1.834052,-0.001505,-0.001443,0.000087,-12.306708,66.601005,-39.928272,-10.02,-9.63,-11.62
9.716166,0.052675,1.843629,-0.000439,0.002285,-0.000047,-12.306708,66.601005,-39.928272,-10.03,-9.64,-11.63
9.730532,0.047886,1.843629,-0.000839,0.000154,0.000353,-12.306708,66.601005,-39.928272,-10.04,-9.66,-11.64
9.730532,0.047886,1.843629,-0.000839,0.000154,0.000353,-12.306708,66.601005,-39.928272,-10.05,-9.67,-11.65
9.711378,0.047886,1.814897,-0.000839,-0.002642,-0.000180,-12.306708,66.601005,-39.928272,-10.06,-9.68,-11.66
9.706589,0.043098,1.838841,-0.000839,-0.000378,0.000087,-12.306708,66.601005,-39.928272,-10.07,-9.69,-11.67
9.706589,0.043098,1.838841,-0.000839,-0.000378,0.000087,-12.306708,66.601005,-39.928272,-10.09,-9.70,-11.68
9.740109,0.047886,1.843629,0.000226,-0.001044,-0.000180,-12.306708,66.601005,-39.928272,-10.10,-9.72,-11.69
9.735321,0.047886,1.838841,-0.000439,-0.001577,-0.000846,-12.306708,66.601005,-39.928272,-10.11,-9.73,-11.70
9.711378,0.033521,1.838841,0.000226,0.001220,-0.000579,-12.306708,66.601005,-39.928272,-10.12,-9.74,-11.71
9.711378,0.033521,1.838841,0.000226,0.001220,-0.000579,-12.306708,66.601005,-39.928272,-10.13,-9.75,-11.72
9.730532,0.033521,1.838841,0.000226,0.002551,-0.000446,-12.306708,66.601005,-39.928272,-10.14,-9.76,-11.73
9.725744,0.028732,1.834052,-0.000173,-0.001044,0.000087,-12.306708,66.601005,-39.928272,-10.15,-9.77,-11.74
9.725744,0.028732,1.834052,-0.000173,-0.001044,0.000087,-12.306708,66.601005,-39.928272,-10.16,-9.79,-11.75
9.730532,0.038309,1.795743,0.000759,-0.002376,0.000220,-11.401803,66.420028,-38.702404,-10.17,-9.80,-11.76
9.720954,0.028732,1.819686,0.001558,-0.000112,-0.000180,-11.401803,66.420028,-38.702404,-10.18,-9.81,-11.77
9.720954,0.028732,1.819686,0.001558,-0.000112,-0.000180,-11.401803,66.420028,-38.702404,-10.19,-9.82,-11.78
9.725744,0.043098,1.834052,0.001158,0.000820,0.000220,-11.401803,66.420028,-38.702404,-10.20,-9.83,-11.79
9.735321,0.038309,1.848418,0.000892,0.001087,0.000220,-11.401803,66.420028,-38.702404,-10.22,-9.84,-11.80
9.735321,0.038309,1.848418,0.000892,0.001087,0.000220,-11.401803,66.420028,-38.702404,-10.23,-9.86,-11.81
9.730532,0.023943,1.843629,0.001158,-0.000644,-0.000047,-11.401803,66.420028,-38.702404,-10.24,-9.87,-11.82
9.725744,0.043098,1.838841,0.000226,-0.000112,-0.000313,-11.401803,66.420028,-38.702404,-10.25,-9.88,-11.83
9.744898,0.038309,1.814897,0.000759,0.002551,-0.000846,-10.677879,67.505912,-41.504390,-10.26,-9.89,-11.84
9.744898,0.038309,1.814897,0.000759,0.002551,-0.000846,-10.677879,67.505912,-41.504390,-10.27,-9.90,-11.85
9.730532,0.038309,1.829263,0.001691,0.000687,-0.000047,-10.677879,67.505912,-41.504390,-10.28,-9.91,-11.85
9.725744,0.052675,1.819686,-0.000173,-0.001843,0.000619,-10.677879,67.505912,-41.504390,-10.29,-9.92,-11.86
9.725744,0.052675,1.819686,-0.000173,-0.001843,0.000619,-10.677879,67.505912,-41.504390,-10.30,-9.94,-11.87
9.716166,0.043098,1.829263,-0.000173,-0.000911,0.000087,-10.677879,67.505912,-41.504390,-10.31,-9.95,-11.88
9.716166,0.052675,1.853207,-0.000306,-0.000644,-0.000047,-10.677879,67.505912,-41.504390,-10.32,-9.96,-11.89
9.716166,0.052675,1.853207,-0.000306,-0.000644,-0.000047,-10.677879,67.505912,-41.504390,-10.33,-9.97,-11.90
9.716166,0.043098,1.824475,0.000093,-0.000644,0.001152,-10.677879,67.505912,-41.504390,-10.34,-9.98,-11.91
9.720954,0.033521,1.834052,0.000759,0.000687,0.000486,-11.763765,65.696098,-39.753147,-10.35,-9.99,-11.92
9.720954,0.033521,1.834052,0.000759,0.000687,0.000486,-11.763765,65.696098,-39.753147,-10.36,-10.00,-11.93
9.735321,0.043098,1.834052,0.000360,-0.000112,0.000353,-11.763765,65.696098,-39.753147,-10.37,-10.01,-11.94
9.740109,0.047886,1.829263,0.000626,-0.000511,-0.000446,-11.763765,65.696098,-39.753147,-10.38,-10.03,-11.95
9.716166,0.023943,1.862784,-0.000173,-0.001177,-0.000712,-11.763765,65.696098,-39.753147,-10.39,-10.04,-11.95
9.716166,0.023943,1.862784,-0.000173,-0.001177,-0.000712,-11.763765,65.696098,-39.753147,-10.40,-10.05,-11.96
9.725744,0.023943,1.857995,-0.001105,0.000554,0.000087,-11.763765,65.696098,-39.753147,-10.41,-10.06,-11.97
9.716166,0.033521,1.838841,-0.000706,0.002152,0.000087,-11.763765,65.696098,-39.753147,-10.42,-10.07,-11.98
9.716166,0.033521,1.838841,-0.000706,0.002152,0.000087,-11.763765,65.696098,-39.753147,-10.43,-10.08,-11.99
9.725744,0.033521,1.838841,-0.000706,0.000421,0.000619,-11.763765,65.696098,-39.753147,-10.44,-10.09,-12.00
9.730532,0.043098,1.829263,-0.000306,-0.000511,0.000752,-12.487689,67.143951,-39.402900,-10.45,-10.10,-12.01
9.730532,0.043098,1.829263,-0.000306,-0.000511,0.000752,-12.487689,67.143951,-39.402900,-10.46,-10.12,-12.02
9.711378,0.019155,1.829263,-0.000573,-0.000511,0.000486,-12.487689,67.143951,-39.402900,-10.47,-10.13,-12.03
9.735321,0.047886,1.814897,-0.000972,-0.001710,0.000353,-12.487689,67.143951,-39.402900,-10.48,-10.14,-12.04
9.720954,0.038309,1.848418,0.000626,-0.001976,-0.000579,-12.487689,67.143951,-39.402900,-10.49,-10.15,-12.05
9.720954,0.038309,1.848418,0.000626,-0.001976,-0.000579,-12.487689,67.143951,-39.402900,-10.50,-10.16,-12.06
9.720954,0.047886,1.843629,-0.001105,-0.002242,-0.000846,-12.487689,67.143951,-39.402900,-10.51,-10.17,-12.06
9.720954,0.038309,1.843629,0.000626,0.000154,0.000087,-12.487689,67.143951,-39.402900,-10.52,-10.18,-12.07
9.720954,0.038309,1.843629,0.000626,0.000154,0.000087,-12.487689,67.143951,-39.402900,-10.53,-10.19,-12.08
9.735321,0.047886,1.838841,-0.001638,-0.002109,0.000886,-12.125727,66.420028,-38.702404,-10.54,-10.20,-12.09
9.716166,0.038309,1.829263,-0.000173,0.001220,-0.000047,-12.125727,66.420028,-38.702404,-10.55,-10.22,-12.10
9.716166,0.038309,1.829263,-0.000173,0.001220,-0.000047,-12.125727,66.420028,-38.702404,-10.56,-10.23,-12.11
9.730532,0.043098,1.834052,-0.000306,0.000554,-0.000047,-12.125727,66.420028,-38.702404,-10.57,-10.24,-12.12
9.730532,0.033521,1.824475,-0.000839,-0.000245,-0.000446,-12.125727,66.420028,-38.702404,-10.58,-10.25,-12.13
9.720954,0.033521,1.853207,0.001558,0.003750,0.000752,-12.125727,66.420028,-38.702404,-10.59,-10.26,-12.14
9.720954,0.033521,1.853207,0.001558,0.003750,0.000752,-12.125727,66.420028,-38.702404,-10.60,-10.27,-12.15
9.730532,0.043098,1.848418,0.000226,-0.000112,-0.000313,-12.125727,66.420028,-38.702404,-10.61,-10.28,-12.16
9.744898,0.038309,1.819686,0.001824,0.002152,0.000752,-11.582784,67.324928,-40.278522,-10.62,-10.29,-12.16
9.744898,0.038309,1.819686,0.001824,0.002152,0.000752,-11.582784,67.324928,-40.278522,-10.63,-10.30,-12.17
9.711378,0.043098,1.814897,0.000226,-0.003308,0.000619,-11.582784,67.324928,-40.278522,-10.64,-10.31,-12.18
9.720954,0.028732,1.819686,0.000093,-0.001443,0.000619,-11.582784,67.324928,-40.278522,-10.65,-10.32,-12.19
9.720954,0.028732,1.819686,0.000093,-0.001443,0.000619,-11.582784,67.324928,-40.278522,-10.66,-10.33,-12.20
9.720954,0.033521,1.810109,-0.000573,-0.003707,0.001019,-11.582784,67.324928,-40.278522,-10.67,-10.34,-12.21
9.725744,0.028732,1.834052,0.001425,0.001619,0.000353,-11.582784,67.324928,-40.278522,-10.68,-10.36,-12.22
9.725744,0.028732,1.834052,0.001425,0.001619,0.000353,-11.582784,67.324928,-40.278522,-10.69,-10.37,-12.22
9.744898,0.047886,1.857995,-0.000306,0.000421,-0.000579,-11.582784,67.324928,-40.278522,-10.70,-10.38,-12.23
9.716166,0.028732,1.824475,-0.001771,-0.002109,0.000220,-12.668670,66.239044,-40.278522,-10.71,-10.39,-12.24
9.720954,0.033521,1.824475,0.001292,0.002285,0.000220,-12.668670,66.239044,-40.278522,-10.72,-10.40,-12.25
9.720954,0.033521,1.824475,0.001292,0.002285,0.000220,-12.668670,66.239044,-40.278522,-10.73,-10.41,-12.26
9.730532,0.038309,1.824475,0.000360,-0.000112,0.000220,-12.668670,66.239044,-40.278522,-10.74,-10.42,-12.27
9.725744,0.038309,1.834052,-0.001505,-0.000778,0.000087,-12.668670,66.239044,-40.278522,-10.75,-10.43,-12.28
9.725744,0.038309,1.834052,-0.001505,-0.000778,0.000087,-12.668670,66.239044,-40.278522,-10.76,-10.44,-12.28
9.725744,0.033521,1.843629,0.000892,0.000288,-0.000313,-12.668670,66.239044,-40.278522,-10.77,-10.45,-12.29
9.725744,0.028732,1.853207,0.000493,-0.000245,-0.000446,-12.668670,66.239044,-40.278522,-10.78,-10.46,-12.30
9.725744,0.028732,1.853207,0.000493,-0.000245,-0.000446,-12.668670,66.239044,-40.278522,-10.79,-10.47,-12.31
9.730532,0.028732,1.838841,-0.000439,-0.001710,0.000752,-12.668670,66.239044,-40.278522,-10.80,-10.48,-12.32
9.720954,0.033521,1.800531,-0.000306,0.001486,0.000353,-12.487689,67.505912,-39.402900,-10.81,-10.49,-12.33
9.740109,0.033521,1.838841,0.000226,-0.001443,0.000087,-12.487689,67.505912,-39.402900,-10.82,-10.50,-12.33
9.740109,0.033521,1.838841,0.000226,-0.001443,0.000087,-12.487689,67.505912,-39.402900,-10.83,-10.51,-12.34
9.730532,0.038309,1.843629,-0.001238,-0.004240,0.000619,-12.487689,67.505912,-39.402900,-10.84,-10.53,-12.35
9.725744,0.038309,1.843629,0.000093,0.000554,-0.000180,-12.487689,67.505912,-39.402900,-10.85,-10.54,-12.36
9.725744,0.038309,1.843629,0.000093,0.000554,-0.000180,-12.487689,67.505912,-39.402900,-10.86,-10.55,-12.37
9.740109,0.023943,1.819686,0.000493,0.000953,0.000886,-12.487689,67.505912,-39.402900,-10.87,-10.56,-12.38
9.720954,0.028732,1.843629,-0.000972,-0.000112,0.000087,-12.487689,67.505912,-39.402900,-10.88,-10.57,-12.39
9.720954,0.028732,1.843629,-0.000972,-0.000112,0.000087,-12.487689,67.505912,-39.402900,-10.89,-10.58,-12.39
9.730532,0.043098,1.819686,-0.000040,0.001886,0.000486,-9.953955,65.696098,-38.702404,-10.89,-10.59,-12.40
9.716166,0.043098,1.834052,0.000360,-0.000378,0.000486,-9.953955,65.696098,-38.702404,-10.90,-10.60,-12.41
9.716166,0.043098,1.834052,0.000360,-0.000378,0.000486,-9.953955,65.696098,-38.702404,-10.91,-10.61,-12.42
9.720954,0.043098,1.824475,-0.000173,-0.002376,0.000087,-9.953955,65.696098,-38.702404,-10.92,-10.62,-12.43
9.720954,0.028732,1.838841,0.000892,0.000288,0.000220,-9.953955,65.696098,-38.702404,-10.93,-10.63,-12.44
9.720954,0.047886,1.843629,-0.000706,0.000421,-0.000446,-9.953955,65.696098,-38.702404,-10.94,-10.64,-12.44
9.720954,0.047886,1.843629,-0.000706,0.000421,-0.000446,-9.953955,65.696098,-38.702404,-10.95,-10.65,-12.45
9.716166,0.043098,1.857995,0.000892,0.000820,-0.000313,-9.953955,65.696098,-38.702404,-10.96,-10.66,-12.46
9.730532,0.038309,1.824475,0.000759,0.001486,-0.000313,-11.944746,66.239044,-40.278522,-10.97,-10.67,-12.47
9.730532,0.038309,1.824475,0.000759,0.001486,-0.000313,-11.944746,66.239044,-40.278522,-10.98,-10.68,-12.48
9.735321,0.043098,1.829263,0.000360,-0.000911,-0.000047,-11.944746,66.239044,-40.278522,-10.99,-10.69,-12.49
9.730532,0.028732,1.829263,0.000759,0.000288,0.000353,-11.944746,66.239044,-40.278522,-11.00,-10.70,-12.49
9.730532,0.028732,1.829263,0.000759,0.000288,0.000353,-11.944746,66.239044,-40.278522,-11.01,-10.71,-12.50
9.730532,0.019155,1.843629,-0.000306,-0.001843,0.000619,-11.944746,66.239044,-40.278522,-11.02,-10.72,-12.51
9.720954,0.038309,1.843629,0.000093,-0.000778,0.000486,-11.944746,66.239044,-40.278522,-11.03,-10.73,-12.52
9.725744,0.043098,1.843629,0.000226,-0.002642,0.000886,-11.944746,66.239044,-40.278522,-11.03,-10.74,-12.53
9.725744,0.043098,1.843629,0.000226,-0.002642,0.000886,-11.944746,66.239044,-40.278522,-11.04,-10.75,-12.53
9.744898,0.033521,1.819686,0.000093,-0.000778,0.000353,-11.944746,66.239044,-40.278522,-11.05,-10.76,-12.54
9.730532,0.028732,1.819686,0.000093,0.001486,0.001684,-11.763765,66.781990,-40.103397,-11.06,-10.77,-12.55
9.730532,0.028732,1.819686,0.000093,0.001486,0.001684,-11.763765,66.781990,-40.103397,-11.07,-10.78,-12.56
9.725744,0.047886,1.819686,-0.000839,-0.002908,0.000886,-11.763765,66.781990,-40.103397,-11.08,-10.79,-12.56
9.725744,0.038309,1.843629,0.000759,0.002019,-0.000180,-11.763765,66.781990,-40.103397,-11.09,-10.80,-12.57
9.725744,0.038309,1.843629,0.000759,0.002019,-0.000180,-11.763765,66.781990,-40.103397,-11.10,-10.81,-12.58
9.730532,0.033521,1.834052,-0.000573,0.000820,0.000619,-11.763765,66.781990,-40.103397,-11.11,-10.82,-12.59
9.720954,0.033521,1.834052,-0.001638,-0.002376,-0.000446,-11.763765,66.781990,-40.103397,-11.12,-10.83,-12.60
9.720954,0.033521,1.834052,-0.001638,-0.002376,-0.000446,-11.763765,66.781990,-40.103397,-11.13,-10.84,-12.60
9.735321,0.038309,1.838841,0.000892,0.000154,0.000087,-11.763765,66.781990,-40.103397,-11.14,-10.85,-12.61
9.730532,0.038309,1.824475,0.000093,-0.001577,-0.000579,-10.858860,66.239044,-39.578025,-11.14,-10.86,-12.62
9.725744,0.047886,1.810109,0.000360,-0.001443,-0.000313,-10.858860,66.239044,-39.578025,-11.15,-10.87,-12.63
9.725744,0.047886,1.810109,0.000360,-0.001443,-0.000313,-10.858860,66.239044,-39.578025,-11.16,-10.88,-12.63
9.730532,0.052675,1.814897,0.001158,-0.000778,0.000752,-10.858860,66.239044,-39.578025,-11.17,-10.89,-12.64
9.735321,0.043098,1.829263,0.000493,-0.000378,-0.000180,-10.858860,66.239044,-39.578025,-11.18,-10.90,-12.65
9.735321,0.043098,1.829263,0.000493,-0.000378,-0.000180,-10.858860,66.239044,-39.578025,-11.19,-10.91,-12.66
9.720954,0.043098,1.810109,0.000226,0.001220,0.000353,-10.858860,66.239044,-39.578025,-11.20,-10.92,-12.67
9.730532,0.028732,1.838841,-0.000439,0.000021,0.000087,-10.858860,66.239044,-39.578025,-11.21,-10.93,-12.67
9.730532,0.028732,1.838841,-0.000439,0.000021,0.000087,-10.858860,66.239044,-39.578025,-11.22,-10.94,-12.68
9.730532,0.043098,1.800531,-0.000173,-0.001577,-0.000047,-10.677879,68.229835,-39.402900,-11.22,-10.95,-12.69
9.711378,0.052675,1.824475,0.000493,-0.000778,0.000220,-10.677879,68.229835,-39.402900,-11.23,-10.96,-12.70
9.725744,0.038309,1.834052,-0.000173,-0.001177,-0.000047,-10.677879,68.229835,-39.402900,-11.24,-10.97,-12.71
9.725744,0.038309,1.834052,-0.000173,-0.001177,-0.000047,-10.677879,68.229835,-39.402900,-11.25,-10.98,-12.71
9.735321,0.023943,1.814897,-0.000439,-0.001976,0.000220,-10.677879,68.229835,-39.402900,-11.26,-10.99,-12.72
9.735321,0.023943,1.853207,0.001292,0.003483,-0.000047,-10.677879,68.229835,-39.402900,-11.27,-11.00,-12.73
9.735321,0.023943,1.853207,0.001292,0.003483,-0.000047,-10.677879,68.229835,-39.402900,-11.28,-11.01,-12.74
9.740109,0.052675,1.838841,0.003422,0.002285,0.000353,-10.677879,68.229835,-39.402900,-11.28,-11.02,-12.74
9.725744,0.043098,1.819686,-0.000306,-0.003840,-0.000180,-11.220822,66.962966,-39.227775,-11.29,-11.03,-12.75
9.725744,0.043098,1.819686,-0.000306,-0.003840,-0.000180,-11.220822,66.962966,-39.227775,-11.30,-11.04,-12.76
9.725744,0.028732,1.829263,-0.000306,-0.001177,-0.000313,-11.220822,66.962966,-39.227775,-11.31,-11.05,-12.77
9.735321,0.043098,1.834052,0.000626,-0.000778,-0.000180,-11.220822,66.962966,-39.227775,-11.32,-11.06,-12.77
9.735321,0.033521,1.824475,0.000759,0.000154,0.000886,-11.220822,66.962966,-39.227775,-11.33,-11.07,-12.78
9.735321,0.033521,1.824475,0.000759,0.000154,0.000886,-11.220822,66.962966,-39.227775,-11.34,-11.08,-12.79
9.735321,0.023943,1.857995,0.000493,0.000820,-0.000047,-11.220822,66.962966,-39.227775,-11.35,-11.09,-12.80
9.744898,0.038309,1.824475,0.000093,0.000554,-0.000712,-11.220822,66.962966,-39.227775,-11.35,-11.10,-12.81
9.744898,0.038309,1.824475,0.000093,0.000554,-0.000712,-11.220822,66.962966,-39.227775,-11.36,-11.11,-12.81
9.725744,0.038309,1.834052,-0.000040,-0.000378,-0.001378,-11.220822,66.962966,-39.227775,-11.37,-11.12,-12.82
9.725744,0.052675,1.805320,-0.001505,0.000288,-0.000446,-12.125727,66.781990,-40.453643,-11.38,-11.13,-12.83
9.725744,0.052675,1.805320,-0.001505,0.000288,-0.000446,-12.125727,66.781990,-40.453643,-11.39,-11.14,-12.84
9.730532,0.038309,1.824475,-0.000972,-0.000511,-0.000047,-12.125727,66.781990,-40.453643,-11.40,-11.15,-12.84
9.716166,0.023943,1.834052,-0.000839,-0.003041,0.000619,-12.125727,66.781990,-40.453643,-11.41,-11.16,-12.85
9.716166,0.023943,1.834052,-0.000839,-0.003041,0.000619,-12.125727,66.781990,-40.453643,-11.42,-11.17,-12.86
9.730532,0.028732,1.838841,-0.000972,-0.001976,-0.000180,-12.125727,66.781990,-40.453643,-11.42,-11.18,-12.86
9.740109,0.033521,1.853207,-0.000706,-0.001310,-0.000579,-12.125727,66.781990,-40.453643,-11.43,-11.19,-12.87
9.735321,0.047886,1.834052,-0.001238,-0.000911,-0.000979,-12.125727,66.781990,-40.453643,-11.44,-11.20,-12.88
9.735321,0.047886,1.834052,-0.001238,-0.000911,-0.000979,-12.125727,66.781990,-40.453643,-11.45,-11.21,-12.89
9.735321,0.033521,1.805320,0.000360,0.002418,-0.000446,-12.306708,66.239044,-39.227775,-11.46,-11.21,-12.89
9.749687,0.033521,1.829263,0.000093,0.000021,0.000220,-12.306708,66.239044,-39.227775,-11.47,-11.22,-12.90
9.749687,0.033521,1.829263,0.000093,0.000021,0.000220,-12.306708,66.239044,-39.227775,-11.48,-11.23,-12.91
9.725744,0.028732,1.814897,-0.000173,-0.002242,-0.000180,-12.306708,66.239044,-39.227775,-11.48,-11.24,-12.92
9.730532,0.033521,1.838841,0.000892,0.005481,0.000752,-12.306708,66.239044,-39.227775,-11.49,-11.25,-12.92
9.730532,0.033521,1.838841,0.000892,0.005481,0.000752,-12.306708,66.239044,-39.227775,-11.50,-11.26,-12.93
9.730532,0.038309,1.829263,0.001158,0.000154,0.000619,-12.306708,66.239044,-39.227775,-11.51,-11.27,-12.94
9.716166,0.023943,1.824475,-0.000306,-0.002242,-0.000047,-12.306708,66.239044,-39.227775,-11.52,-11.28,-12.95
9.730532,0.038309,1.810109,0.000093,0.003084,-0.000313,-11.220822,66.239044,-39.928272,-11.53,-11.29,-12.95
9.730532,0.038309,1.810109,0.000093,0.003084,-0.000313,-11.220822,66.239044,-39.928272,-11.54,-11.30,-12.96
9.749687,0.023943,1.829263,-0.000706,-0.001177,-0.000846,-11.220822,66.239044,-39.928272,-11.54,-11.31,-12.97
9.725744,0.043098,1.810109,0.000759,-0.000778,-0.000446,-11.220822,66.239044,-39.928272,-11.55,-11.32,-12.97
9.725744,0.043098,1.810109,0.000759,-0.000778,-0.000446,-11.220822,66.239044,-39.928272,-11.56,-11.33,-12.98
9.725744,0.028732,1.819686,-0.000439,-0.000245,-0.000446,-11.220822,66.239044,-39.928272,-11.57,-11.34,-12.99
9.725744,0.038309,1.843629,0.000093,-0.001577,0.000619,-11.220822,66.239044,-39.928272,-11.58,-11.35,-13.00
9.725744,0.038309,1.843629,0.000093,-0.001577,0.000619,-11.220822,66.239044,-39.928272,-11.59,-11.36,-13.00
9.725744,0.028732,1.819686,-0.000573,-0.001177,-0.000446,-11.220822,66.239044,-39.928272,-11.60,-11.37,-13.01
9.725744,0.047886,1.829263,0.000759,0.001353,-0.000180,-11.220822,66.239044,-39.928272,-11.60,-11.38,-13.02
9.725744,0.028732,1.805320,-0.001238,-0.003175,0.000353,-10.858860,66.601005,-41.329265,-11.61,-11.39,-13.02
9.725744,0.028732,1.805320,-0.001238,-0.003175,0.000353,-10.858860,66.601005,-41.329265,-11.62,-11.39,-13.03
9.730532,0.028732,1.862784,0.000360,0.004416,-0.000313,-10.858860,66.601005,-41.329265,-11.63,-11.40,-13.04
9.730532,0.038309,1.834052,-0.000306,-0.001976,0.001152,-10.858860,66.601005,-41.329265,-11.64,-11.41,-13.04
9.730532,0.038309,1.834052,-0.000306,-0.001976,0.001152,-10.858860,66.601005,-41.329265,-11.64,-11.42,-13.05
9.730532,0.028732,1.829263,0.000226,-0.001577,0.000087,-10.858860,66.601005,-41.329265,-11.65,-11.43,-13.06
9.735321,0.033521,1.814897,0.001292,0.003350,0.000220,-10.858860,66.601005,-41.329265,-11.66,-11.44,-13.06
9.735321,0.033521,1.814897,0.001292,0.003350,0.000220,-10.858860,66.601005,-41.329265,-11.67,-11.45,-13.07
9.735321,0.038309,1.834052,-0.000306,0.000154,0.000886,-10.858860,66.601005,-41.329265,-11.68,-11.46,-13.08
9.730532,0.033521,1.814897,0.000360,0.000820,-0.000047,-11.763765,65.696098,-39.402900,-11.69,-11.47,-13.08
9.730532,0.033521,1.814897,0.000360,0.000820,-0.000047,-11.763765,65.696098,-39.402900,-11.69,-11.48,-13.09
9.725744,0.043098,1.829263,0.001025,0.001486,0.000486,-11.763765,65.696098,-39.402900,-11.70,-11.49,-13.10
9.701800,0.043098,1.824475,0.001824,0.002285,0.000087,-11.763765,65.696098,-39.402900,-11.71,-11.50,-13.11
9.730532,0.023943,1.834052,0.000759,0.000154,0.000087,-11.763765,65.696098,-39.402900,-11.72,-11.51,-13.11
9.730532,0.023943,1.834052,0.000759,0.000154,0.000087,-11.763765,65.696098,-39.402900,-11.73,-11.51,-13.12
9.720954,0.033521,1.834052,-0.001638,0.000021,-0.000047,-11.763765,65.696098,-39.402900,-11.74,-11.52,-13.13
9.730532,0.023943,1.838841,-0.001638,-0.002242,-0.000313,-11.763765,65.696098,-39.402900,-11.74,-11.53,-13.13
9.730532,0.023943,1.838841,-0.001638,-0.002242,-0.000313,-11.763765,65.696098,-39.402900,-11.75,-11.54,-13.14
9.725744,0.033521,1.810109,-0.000306,0.001886,-0.000846,-12.487689,65.696098,-40.103397,-11.76,-11.55,-13.15
9.725744,0.038309,1.824475,-0.001372,-0.000378,-0.000712,-12.487689,65.696098,-40.103397,-11.77,-11.56,-13.15
9.725744,0.038309,1.824475,-0.001372,-0.000378,-0.000712,-12.487689,65.696098,-40.103397,-11.78,-11.57,-13.16
9.725744,0.038309,1.814897,-0.002171,-0.002109,0.000752,-12.487689,65.696098,-40.103397,-11.79,-11.58,-13.17
9.720954,0.023943,1.843629,-0.000972,-0.001710,0.000486,-12.487689,65.696098,-40.103397,-11.79,-11.59,-13.17
9.735321,0.033521,1.848418,0.000892,0.000154,-0.000313,-12.487689,65.696098,-40.103397,-11.80,-11.60,-13.18
9.735321,0.033521,1.848418,0.000892,0.000154,-0.000313,-12.487689,65.696098,-40.103397,-11.81,-11.61,-13.19
9.720954,0.023943,1.838841,0.001025,0.000820,-0.000313,-12.487689,65.696098,-40.103397,-11.82,-11.62,-13.20
9.730532,0.043098,1.824475,-0.000040,0.000687,-0.000180,-11.763765,66.781990,-38.352157,-11.83,-11.63,-13.20
9.730532,0.043098,1.824475,-0.000040,0.000687,-0.000180,-11.763765,66.781990,-38.352157,-11.84,-11.64,-13.21
9.725744,0.047886,1.805320,-0.001238,-0.000911,0.000353,-11.763765,66.781990,-38.352157,-11.84,-11.64,-13.22
9.725744,0.038309,1.829263,0.000360,-0.001044,-0.000180,-11.763765,66.781990,-38.352157,-11.85,-11.65,-13.22
9.725744,0.038309,1.829263,0.000360,-0.001044,-0.000180,-11.763765,66.781990,-38.352157,-11.86,-11.66,-13.23
9.720954,0.033521,1.829263,0.000226,0.000421,-0.000446,-11.763765,66.781990,-38.352157,-11.87,-11.67,-13.24
9.730532,0.028732,1.857995,0.000226,0.000288,-0.000712,-11.763765,66.781990,-38.352157,-11.88,-11.68,-13.24
9.730532,0.028732,1.857995,0.000226,0.000288,-0.000712,-11.763765,66.781990,-38.352157,-11.88,-11.69,-13.25
9.735321,0.038309,1.829263,-0.000306,-0.001443,-0.000180,-11.763765,66.781990,-38.352157,-11.89,-11.70,-13.26
9.740109,0.023943,1.834052,-0.000573,0.000421,0.000220,-11.763765,66.781990,-38.352157,-11.90,-11.71,-13.27
9.725744,0.038309,1.843629,0.000493,-0.000644,-0.000313,-12.487689,66.420028,-40.803894,-11.91,-11.72,-13.27
9.725744,0.038309,1.843629,0.000493,-0.000644,-0.000313,-12.487689,66.420028,-40.803894,-11.92,-11.73,-13.28
9.730532,0.028732,1.800531,-0.000173,-0.000511,-0.000047,-12.487689,66.420028,-40.803894,-11.92,-11.73,-13.29
9.725744,0.023943,1.829263,0.000626,0.000288,-0.000446,-12.487689,66.420028,-40.803894,-11.93,-11.74,-13.29
9.725744,0.023943,1.829263,0.000626,0.000288,-0.000446,-12.487689,66.420028,-40.803894,-11.94,-11.75,-13.30
9.725744,0.023943,1.829263,0.000626,0.000288,-0.000446,-12.487689,66.420028,-40.803894,-11.95,-11.76,-13.30
9.481522,-2.877977,2.643333,1.655806,0.147563,3.936565,-12.487689,66.420028,-40.803894,-11.90,-11.66,-13.09
9.481522,-2.877977,2.643333,1.655806,0.147563,3.936565,-12.487689,66.420028,-40.803894,-11.85,-11.56,-12.88
13.211878,-3.265857,1.690392,1.045666,0.440382,0.689190,-12.487689,66.420028,-40.803894,-11.83,-11.51,-12.85
10.712204,-0.387880,2.451787,0.081454,-1.494834,0.020993,-8.506107,67.505912,-41.504390,-11.92,-11.53,-12.84
11.033044,-1.479692,1.642506,0.574679,-1.821342,-0.344399,-8.506107,67.505912,-41.504390,-12.04,-11.53,-12.85
11.033044,-1.479692,1.642506,0.574679,-1.821342,-0.344399,-8.506107,67.505912,-41.504390,-12.16,-11.53,-12.85
12.914982,-1.221105,0.268164,0.389853,-2.213632,-0.111635,-8.506107,67.505912,-41.504390,-12.29,-11.55,-12.84
11.918944,-1.460537,1.034348,0.469083,-2.966652,-0.596337,-8.506107,67.505912,-41.504390,-12.48,-11.57,-12.84
11.918944,-1.460537,1.034348,0.469083,-2.966652,-0.596337,-8.506107,67.505912,-41.504390,-12.66,-11.59,-12.85
11.645991,-0.842802,0.545906,0.300902,-3.373723,-0.623635,-8.506107,67.505912,-41.504390,-12.87,-11.62,-12.85
12.287670,-1.455749,-0.225066,0.175598,-3.611413,-0.684756,-8.506107,67.505912,-41.504390,-13.10,-11.67,-12.85
12.287670,-1.455749,-0.225066,0.175598,-3.611413,-0.684756,-8.506107,67.505912,-41.504390,-13.32,-11.72,-12.86
12.158376,-1.201951,-0.641679,-0.007364,-3.915018,-0.674769,-7.420221,67.505912,-39.052654,-13.56,-11.78,-12.86
12.105701,-1.388708,-1.556310,-0.139325,-4.181871,-0.585685,-7.420221,67.505912,-39.052654,-13.81,-11.85,-12.85
12.105701,-1.388708,-1.556310,-0.139325,-4.181871,-0.585685,-7.420221,67.505912,-39.052654,-14.07,-11.92,-12.83
10.137567,-0.828436,-1.460537,-0.393927,-4.419428,-0.461579,-7.420221,67.505912,-39.052654,-14.33,-12.01,-12.81
9.376173,0.215489,-2.284185,-0.683950,-4.419428,-0.457452,-7.420221,67.505912,-39.052654,-14.60,-12.12,-12.79
8.250840,0.512385,-3.428672,-0.669702,-4.419428,-0.457718,-7.420221,67.505912,-39.052654,-14.87,-12.22,-12.77
8.250840,0.512385,-3.428672,-0.669702,-4.419428,-0.457718,-7.420221,67.505912,-39.052654,-15.13,-12.32,-12.75
7.111141,0.785338,-4.084716,-0.694203,-4.393595,-0.467305,-7.420221,67.505912,-39.052654,-15.40,-12.43,-12.73
6.258762,0.986461,-4.285840,-0.762914,-4.188928,-0.394200,-4.524525,63.162368,-32.047691,-15.65,-12.53,-12.70
6.258762,0.986461,-4.285840,-0.762914,-4.188928,-0.394200,-4.524525,63.162368,-32.047691,-15.90,-12.64,-12.68
5.047235,0.536328,-4.372035,-0.824833,-3.972011,-0.439209,-4.524525,63.162368,-32.047691,-16.14,-12.74,-12.66
4.597102,1.264203,-5.176528,-0.907526,-3.618604,-0.325490,-4.524525,63.162368,-32.047691,-16.35,-12.85,-12.64
4.597102,1.264203,-5.176528,-0.907526,-3.618604,-0.325490,-4.524525,63.162368,-32.047691,-16.57,-12.96,-12.61
4.194855,2.011232,-5.971443,-0.832424,-3.226181,-0.196058,-4.524525,63.162368,-32.047691,-16.76,-13.05,-12.59
4.166123,1.594620,-6.742415,-0.628822,-2.907795,-0.117361,-4.524525,63.162368,-32.047691,-16.94,-13.13,-12.56
4.937096,1.398285,-7.623527,-0.527753,-2.638546,-0.037065,-4.524525,63.162368,-32.047691,-17.09,-13.20,-12.54
4.937096,1.398285,-7.623527,-0.527753,-2.638546,-0.037065,-4.524525,63.162368,-32.047691,-17.25,-13.27,-12.51
4.348092,0.713508,-8.246051,-0.502586,-2.505918,0.041100,-4.524525,63.162368,-32.047691,-17.40,-13.34,-12.48
3.778243,1.168430,-7.733665,-0.517899,-2.488874,0.072659,-0.542943,58.818824,-27.844717,-17.55,-13.41,-12.45
3.778243,1.168430,-7.733665,-0.517899,-2.488874,0.072659,-0.542943,58.818824,-27.844717,-17.69,-13.48,-12.42
3.122198,1.249837,-8.059294,-0.640939,-2.594470,-0.025347,-0.542943,58.818824,-27.844717,-17.85,-13.55,-12.39
2.739106,1.948979,-8.586046,-0.798335,-2.516171,0.053484,-0.542943,58.818824,-27.844717,-17.99,-13.64,-12.36
2.739106,1.948979,-8.586046,-0.798335,-2.516171,0.053484,-0.542943,58.818824,-27.844717,-18.14,-13.72,-12.33
2.317705,2.116582,-8.748859,-0.801930,-2.461975,0.112341,-0.542943,58.818824,-27.844717,-18.29,-13.80,-12.29
1.757434,2.638545,-8.854209,-0.758120,-2.356246,0.147495,-0.542943,58.818824,-27.844717,-18.42,-13.88,-12.26
1.757434,2.638545,-8.854209,-0.758120,-2.356246,0.147495,-0.542943,58.818824,-27.844717,-18.56,-13.96,-12.22
0.474076,2.705586,-8.538159,-0.693005,-2.199250,0.163474,-0.542943,58.818824,-27.844717,-18.69,-14.03,-12.19
-0.181969,2.672065,-8.796746,-0.602589,-1.922810,0.134578,4.886487,58.094898,-25.042732,-18.80,-14.10,-12.16
-0.153237,2.739106,-9.012235,-0.476886,-1.603492,0.118200,4.886487,58.094898,-25.042732,-18.89,-14.15,-12.14
-0.153237,2.739106,-9.012235,-0.476886,-1.603492,0.118200,4.886487,58.094898,-25.042732,-18.99,-14.21,-12.11
0.249010,2.887554,-9.586873,-0.365032,-1.317331,0.110743,4.886487,58.094898,-25.042732,-19.06,-14.25,-12.10
0.095773,2.825302,-9.601239,-0.227744,-1.141560,0.191970,4.886487,58.094898,-25.042732,-19.13,-14.28,-12.08
0.095773,2.825302,-9.601239,-0.227744,-1.141560,0.191970,4.886487,58.094898,-25.042732,-19.20,-14.32,-12.05
-0.383092,2.581081,-9.586873,-0.113226,-0.971648,0.270135,4.886487,58.094898,-25.042732,-19.25,-14.34,-12.03
-0.699142,2.753472,-9.409692,-0.039588,-0.759657,0.282386,4.886487,58.094898,-25.042732,-19.29,-14.36,-12.01
-0.699142,2.753472,-9.409692,-0.039588,-0.759657,0.282386,4.886487,58.094898,-25.042732,-19.34,-14.37,-11.99
0.268164,2.777415,-10.156722,0.040174,-0.543804,0.125257,9.049050,59.361766,-24.517360,-19.37,-14.38,-11.98
1.230682,2.183623,-10.156722,0.148966,-0.486146,0.005812,9.049050,59.361766,-24.517360,-19.40,-14.39,-11.98
1.230682,2.183623,-10.156722,0.148966,-0.486146,0.005812,9.049050,59.361766,-24.517360,-19.43,-14.39,-11.98
1.211528,2.236298,-10.027428,0.242578,-0.546468,0.016998,9.049050,59.361766,-24.517360,-19.47,-14.39,-11.98
0.469287,1.747856,-9.361806,0.273071,-0.613847,0.058810,9.049050,59.361766,-24.517360,-19.50,-14.39,-11.97
0.191546,2.035175,-9.538986,0.189447,-0.604659,0.071727,9.049050,59.361766,-24.517360,-19.54,-14.39,-11.96
0.191546,2.035175,-9.538986,0.189447,-0.604659,0.071727,9.049050,59.361766,-24.517360,-19.58,-14.39,-11.96
-0.531540,2.423056,-9.428847,0.153360,-0.594006,0.009408,9.049050,59.361766,-24.517360,-19.61,-14.40,-11.95
-1.000827,2.504462,-9.189414,0.162948,-0.517439,-0.107107,9.049050,59.361766,-24.517360,-19.65,-14.40,-11.96
-1.000827,2.504462,-9.189414,0.162948,-0.517439,-0.107107,9.049050,59.361766,-24.517360,-19.68,-14.40,-11.96
-0.555483,2.063907,-9.299553,0.207956,-0.421963,-0.193262,10.315917,58.818824,-24.692483,-19.71,-14.40,-11.97
-0.790127,1.867572,-9.036178,0.208222,-0.375091,-0.180079,10.315917,58.818824,-24.692483,-19.74,-14.40,-11.98
-0.790127,1.867572,-9.036178,0.208222,-0.375091,-0.180079,10.315917,58.818824,-24.692483,-19.77,-14.40,-11.99
-0.555483,2.001655,-9.036178,0.181724,-0.253116,-0.063697,10.315917,58.818824,-24.692483,-19.79,-14.40,-12.00
-1.240260,2.332071,-8.935617,0.205426,-0.164298,0.023922,10.315917,58.818824,-24.692483,-19.80,-14.40,-12.00
-1.240260,2.332071,-8.935617,0.205426,-0.164298,0.023922,10.315917,58.818824,-24.692483,-19.81,-14.39,-12.00
-1.101389,2.480519,-9.337862,0.226865,-0.033668,0.020993,10.315917,58.818824,-24.692483,-19.82,-14.39,-12.01
0.181969,2.020809,-10.281227,0.246839,-0.006104,-0.026812,10.315917,58.818824,-24.692483,-19.82,-14.38,-12.01
0.033521,1.039137,-9.692223,0.203429,-0.166429,-0.032538,10.496898,59.723728,-26.268600,-19.83,-14.38,-12.02
0.033521,1.039137,-9.692223,0.203429,-0.166429,-0.032538,10.496898,59.723728,-26.268600,-19.85,-14.37,-12.02
0.205912,1.316878,-10.204608,0.005020,-0.244194,-0.056107,10.496898,59.723728,-26.268600,-19.86,-14.38,-12.03
1.197162,1.326455,-10.755303,0.045767,-0.191330,0.213675,10.496898,59.723728,-26.268600,-19.88,-14.39,-12.02
1.197162,1.326455,-10.755303,0.045767,-0.191330,0.213675,10.496898,59.723728,-26.268600,-19.89,-14.39,-12.01
0.325628,2.006443,-10.702628,-0.082866,-0.381482,0.226326,10.496898,59.723728,-26.268600,-19.91,-14.41,-12.00
-0.747029,2.202778,-10.046583,-0.115357,-0.460180,0.148427,10.496898,59.723728,-26.268600,-19.94,-14.42,-11.99
-0.747029,2.202778,-10.046583,-0.115357,-0.460180,0.148427,10.496898,59.723728,-26.268600,-19.96,-14.44,-11.98
-1.201951,2.317705,-9.725744,-0.004567,-0.370430,0.126322,10.496898,59.723728,-26.268600,-19.98,-14.45,-11.97
-1.178007,2.016021,-9.711378,0.157488,-0.184006,0.153620,11.039841,60.266670,-27.844717,-20.00,-14.45,-11.97
-1.077446,2.092639,-9.697011,0.150697,-0.047783,0.188375,11.039841,60.266670,-27.844717,-20.00,-14.45,-11.96
-1.077446,2.092639,-9.697011,0.150697,-0.047783,0.188375,11.039841,60.266670,-27.844717,-20.00,-14.45,-11.95
-1.292935,2.418267,-9.538986,0.102760,0.023857,0.176257,11.039841,60.266670,-27.844717,-20.00,-14.44,-11.95
-0.933786,1.786165,-9.467156,0.219142,0.133980,0.188508,11.039841,60.266670,-27.844717,-19.99,-14.44,-11.95
-0.933786,1.786165,-9.467156,0.219142,0.133980,0.188508,11.039841,60.266670,-27.844717,-19.99,-14.43,-11.94
-0.766184,1.436594,-9.404904,0.200632,0.164607,0.164007,11.039841,60.266670,-27.844717,-19.98,-14.42,-11.94
-0.847591,1.465326,-9.352229,-0.027338,0.109346,0.085708,11.039841,60.266670,-27.844717,-19.97,-14.42,-11.94
-0.847591,1.465326,-9.352229,-0.027338,0.109346,0.085708,11.039841,60.266670,-27.844717,-19.97,-14.43,-11.95
-1.144487,1.752645,-9.261244,-0.228809,0.143168,0.117001,11.039841,60.990596,-26.443725,-19.96,-14.45,-11.95
-0.608158,1.881938,-9.625182,-0.288065,0.336384,0.181051,11.039841,60.990596,-26.443725,-19.94,-14.47,-11.95
-0.608158,1.881938,-9.625182,-0.288065,0.336384,0.181051,11.039841,60.990596,-26.443725,-19.93,-14.48,-11.95
-0.890688,1.853207,-9.428847,-0.447591,0.379927,0.158547,11.039841,60.990596,-26.443725,-19.91,-14.51,-11.95
-1.034348,1.733490,-9.313920,-0.746003,0.524539,0.143500,11.039841,60.990596,-26.443725,-19.88,-14.55,-11.95
-1.178007,1.881938,-9.222935,-1.002469,0.765559,0.210346,11.039841,60.990596,-26.443725,-19.83,-14.61,-11.96
-1.178007,1.881938,-9.222935,-1.002469,0.765559,0.210346,11.039841,60.990596,-26.443725,-19.79,-14.66,-11.96
-0.871534,2.686431,-9.371383,-1.052803,0.995925,0.482126,11.039841,60.990596,-26.443725,-19.73,-14.71,-11.96
0.507597,2.681643,-9.740109,-0.847471,1.154519,0.887465,11.039841,60.990596,-26.443725,-19.65,-14.75,-11.93
0.507597,2.681643,-9.740109,-0.847471,1.154519,0.887465,11.039841,60.990596,-26.443725,-19.58,-14.79,-11.90
0.493231,3.059946,-9.649125,-0.870907,1.301528,1.438748,12.306708,56.466072,-24.167112,-19.49,-14.83,-11.85
2.418267,6.210875,-9.845459,-0.848403,1.218436,2.255552,12.306708,56.466072,-24.167112,-19.39,-14.86,-11.74
2.418267,6.210875,-9.845459,-0.848403,1.218436,2.255552,12.306708,56.466072,-24.167112,-19.29,-14.89,-11.64
3.270646,6.641854,-8.753648,0.553507,0.134114,1.869920,12.306708,56.466072,-24.167112,-19.25,-14.86,-11.55
1.383919,1.685604,-8.839843,2.008014,-0.555922,1.589885,12.306708,56.466072,-24.167112,-19.27,-14.75,-11.46
1.115755,0.435767,-9.318708,1.664062,-0.586283,1.324230,12.306708,56.466072,-24.167112,-19.28,-14.67,-11.38
1.115755,0.435767,-9.318708,1.664062,-0.586283,1.324230,12.306708,56.466072,-24.167112,-19.30,-14.58,-11.31
0.809281,0.727874,-9.352229,1.106920,-0.659654,0.939531,12.306708,56.466072,-24.167112,-19.33,-14.53,-11.25
0.646467,1.905882,-10.204608,0.731542,-0.558319,1.578033,16.288290,56.466072,-26.969097,-19.34,-14.50,-11.16
0.646467,1.905882,-10.204608,0.731542,-0.558319,1.578033,16.288290,56.466072,-26.969097,-19.35,-14.46,-11.07
-0.632101,0.938575,-10.405732,0.648982,-0.321960,1.090934,16.288290,56.466072,-26.969097,-19.35,-14.43,-11.01
1.197162,0.924209,-9.965176,0.248170,0.113474,1.086673,16.288290,56.466072,-26.969097,-19.34,-14.42,-10.96
1.197162,0.924209,-9.965176,0.248170,0.113474,1.086673,16.288290,56.466072,-26.969097,-19.32,-14.41,-10.90
1.556310,1.948979,-9.701800,-0.015487,0.070596,1.197995,16.288290,56.466072,-26.969097,-19.30,-14.41,-10.84
1.019982,1.518001,-9.993907,0.213149,-0.122220,0.776543,16.288290,56.466072,-26.969097,-19.30,-14.40,-10.81
1.019982,1.518001,-9.993907,0.213149,-0.122220,0.776543,16.288290,56.466072,-26.969097,-19.30,-14.39,-10.77
0.373515,0.799704,-9.922078,0.231126,-0.136867,0.722746,16.288290,56.466072,-26.969097,-19.30,-14.39,-10.73
0.938575,1.522790,-9.826305,-0.015620,0.099492,0.989466,19.003004,55.923126,-26.443725,-19.28,-14.39,-10.68
1.063080,1.661661,-9.294765,0.050694,0.055150,1.050453,19.003004,55.923126,-26.443725,-19.26,-14.39,-10.63
1.063080,1.661661,-9.294765,0.050694,0.055150,1.050453,19.003004,55.923126,-26.443725,-19.25,-14.39,-10.58
1.551522,0.440556,-9.428847,0.216478,-0.009966,0.766290,19.003004,55.923126,-26.443725,-19.24,-14.38,-10.54
1.292935,1.259414,-9.730532,-0.050374,-0.090261,0.766822,19.003004,55.923126,-26.443725,-19.24,-14.39,-10.50
1.292935,1.259414,-9.730532,-0.050374,-0.090261,0.766822,19.003004,55.923126,-26.443725,-19.23,-14.40,-10.47
-0.493231,-0.579426,-9.893346,-0.340530,-0.121421,-0.127081,19.003004,55.923126,-26.443725,-19.24,-14.42,-10.48
0.153237,2.298551,-9.754475,-1.041085,0.334786,-0.220427,19.003004,55.923126,-26.443725,-19.23,-14.49,-10.50
0.153237,2.298551,-9.754475,-1.041085,0.334786,-0.220427,19.003004,55.923126,-26.443725,-19.22,-14.55,-10.52
0.866745,2.901920,-9.275610,-0.607649,0.760898,0.448969,19.003004,55.923126,-26.443725,-19.17,-14.58,-10.51
-0.670411,1.541944,-9.361806,0.126728,0.776611,0.294770,18.822023,55.018222,-25.918352,-19.13,-14.57,-10.52
-0.670411,1.541944,-9.361806,0.126728,0.776611,0.294770,18.822023,55.018222,-25.918352,-19.08,-14.56,-10.52
3.012059,1.738279,-9.380961,-0.063824,0.807770,1.056312,18.822023,55.018222,-25.918352,-19.02,-14.56,-10.47
1.814897,1.728702,-9.457579,0.119804,0.444776,1.122493,18.822023,55.018222,-25.918352,-18.98,-14.55,-10.43
1.666449,0.172391,-9.577295,0.200765,0.431593,0.421006,18.822023,55.018222,-25.918352,-18.96,-14.54,-10.41
1.666449,0.172391,-9.577295,0.200765,0.431593,0.421006,18.822023,55.018222,-25.918352,-18.93,-14.53,-10.40
2.949807,0.699142,-9.567718,-0.369559,0.411486,-0.869182,18.822023,55.018222,-25.918352,-18.92,-14.56,-10.46
1.920248,-0.866745,-10.822343,-0.288997,0.004815,0.681999,18.822023,55.018222,-25.918352,-18.91,-14.58,-10.43
1.920248,-0.866745,-10.822343,-0.288997,0.004815,0.681999,18.822023,55.018222,-25.918352,-18.91,-14.60,-10.40
2.628968,4.884420,-9.021812,-0.097646,-0.419167,2.838926,19.003004,52.665470,-25.392980,-18.89,-14.61,-10.24
1.958557,1.541944,-9.194204,0.951655,-0.486279,3.508721,19.003004,52.665470,-25.392980,-18.87,-14.55,-10.05
1.958557,1.541944,-9.194204,0.951655,-0.486279,3.508721,19.003004,52.665470,-25.392980,-18.85,-14.50,-9.85
2.035175,0.234644,-9.946022,1.003321,-0.392002,3.621774,19.003004,52.665470,-25.392980,-18.82,-14.45,-9.65
1.556310,-0.526751,-10.137567,0.587329,-0.503990,4.292368,19.003004,52.665470,-25.392980,-18.79,-14.41,-9.41
1.292935,-0.761395,-10.147145,0.022864,-0.356448,4.188770,19.003004,52.665470,-25.392980,-18.75,-14.41,-9.18
1.292935,-0.761395,-10.147145,0.022864,-0.356448,4.188770,19.003004,52.665470,-25.392980,-18.72,-14.41,-8.95
1.522790,0.028732,-9.471945,-0.516035,0.064604,4.007406,19.003004,52.665470,-25.392980,-18.66,-14.44,-8.73
1.733490,1.019982,-9.017024,-0.709783,0.025455,3.664519,26.785186,44.159362,-26.618848,-18.60,-14.48,-8.54
1.733490,1.019982,-9.017024,-0.709783,0.025455,3.664519,26.785186,44.159362,-26.618848,-18.55,-14.51,-8.34
2.265030,0.742240,-9.323497,-0.356776,-0.275620,3.860530,26.785186,44.159362,-26.618848,-18.51,-14.54,-8.13
2.030386,-0.344783,-9.572506,0.003023,-0.547000,-4.338136,26.785186,44.159362,-26.618848,-18.61,-14.55,-8.37
2.030386,-0.344783,-9.572506,0.003023,-0.547000,-4.338136,26.785186,44.159362,-26.618848,-18.71,-14.57,-8.61
2.667277,-0.852379,-10.099258,0.120204,-0.606656,-4.338136,26.785186,44.159362,-26.618848,-18.81,-14.59,-8.84
1.537156,0.181969,-9.524621,-0.024808,-0.459514,-4.338136,26.785186,44.159362,-26.618848,-18.90,-14.61,-9.08
1.537156,0.181969,-9.524621,-0.024808,-0.459514,-4.338136,26.785186,44.159362,-26.618848,-18.99,-14.63,-9.32
1.757434,-0.349571,-9.567718,0.036313,0.054883,-4.338136,26.785186,44.159362,-26.618848,-19.05,-14.64,-9.57
1.374342,-1.374342,-9.366595,-0.068484,0.495510,-4.338136,26.061264,23.889492,-26.969097,-19.09,-14.66,-9.82
2.810936,1.000827,-10.673895,-0.589273,0.533327,-4.338136,26.061264,23.889492,-26.969097,-19.12,-14.70,-10.07
2.810936,1.000827,-10.673895,-0.589273,0.533327,-4.338136,26.061264,23.889492,-26.969097,-19.16,-14.74,-10.32
0.541117,-1.824475,-10.372211,-0.483677,-0.150050,-4.338136,26.061264,23.889492,-26.969097,-19.23,-14.79,-10.57
0.134082,-2.150103,-9.084065,-0.595931,0.414282,-4.338136,26.061264,23.889492,-26.969097,-19.28,-14.83,-10.81
0.134082,-2.150103,-9.084065,-0.595931,0.414282,-4.338136,26.061264,23.889492,-26.969097,-19.32,-14.88,-11.06
2.274607,0.603370,-9.969964,-0.746136,1.262379,-4.338136,26.061264,23.889492,-26.969097,-19.31,-14.92,-11.33
1.723913,-0.292108,-9.792784,-0.622031,0.783003,-4.338136,26.061264,23.889492,-26.969097,-19.34,-14.97,-11.58
1.723913,-0.292108,-9.792784,-0.622031,0.783003,-4.338136,26.061264,23.889492,-26.969097,-19.36,-15.01,-11.84
2.221932,0.019155,-9.864614,-0.691008,0.471674,3.062369,26.061264,23.889492,-26.969097,-19.29,-15.04,-11.68
1.948979,-0.287319,-9.692223,-0.716841,0.196699,2.292038,12.306708,9.772974,-27.319345,-19.25,-15.07,-11.55
2.178835,0.191546,-9.227724,-0.559445,0.028917,1.898017,12.306708,9.772974,-27.319345,-19.22,-15.10,-11.45
2.178835,0.191546,-9.227724,-0.559445,0.028917,1.898017,12.306708,9.772974,-27.319345,-19.19,-15.12,-11.34
1.699970,-1.268992,-9.572506,-0.026539,-0.095721,1.470307,12.306708,9.772974,-27.319345,-19.17,-15.12,-11.26
1.087023,-0.478865,-9.850248,-0.192057,-0.283210,1.558459,12.306708,9.772974,-27.319345,-19.16,-15.13,-11.17
1.087023,-0.478865,-9.850248,-0.192057,-0.283210,1.558459,12.306708,9.772974,-27.319345,-19.15,-15.14,-11.08
0.402246,-0.028732,-10.037006,-0.159832,-0.332879,1.583493,12.306708,9.772974,-27.319345,-19.15,-15.15,-10.98
0.675199,-1.067868,-10.190242,-0.000839,-0.296926,1.596143,12.306708,9.772974,-27.319345,-19.14,-15.15,-10.89
0.675199,-1.067868,-10.190242,-0.000839,-0.296926,1.596143,12.306708,9.772974,-27.319345,-19.13,-15.14,-10.80
0.617735,-0.737452,-10.017850,-0.260634,-0.268163,1.629966,6.153354,9.772974,-27.669591,-19.13,-15.16,-10.70
0.775761,-0.306473,-9.572506,-0.291794,-0.048715,1.447936,6.153354,9.772974,-27.669591,-19.11,-15.17,-10.62
0.775761,-0.306473,-9.572506,-0.291794,-0.048715,1.447936,6.153354,9.772974,-27.669591,-19.09,-15.19,-10.54
1.019982,-0.703931,-9.946022,-0.020547,0.143701,1.491879,6.153354,9.772974,-27.669591,-19.06,-15.18,-10.46
1.015193,-0.263376,-9.266034,-0.140790,-0.050180,1.902678,6.153354,9.772974,-27.669591,-19.04,-15.19,-10.36
1.460537,-0.517174,-9.112796,-0.077672,-0.217695,2.104016,6.153354,9.772974,-27.669591,-19.02,-15.19,-10.24
1.460537,-0.517174,-9.112796,-0.077672,-0.217695,2.104016,6.153354,9.772974,-27.669591,-19.00,-15.19,-10.12
1.829263,-0.756606,-9.141529,-0.006298,-0.439940,2.186575,6.153354,9.772974,-27.669591,-18.99,-15.19,-9.99
1.053502,-1.594620,-11.033044,0.071467,-0.619173,2.111872,0.723924,10.134936,-29.420833,-19.00,-15.19,-9.86
1.053502,-1.594620,-11.033044,0.071467,-0.619173,2.111872,0.723924,10.134936,-29.420833,-19.00,-15.19,-9.74
0.426190,-1.412651,-10.515871,-0.085928,-0.580024,1.865792,0.723924,10.134936,-29.420833,-19.00,-15.20,-9.63
0.751818,-0.608158,-9.582084,-0.121748,-0.401323,1.906140,0.723924,10.134936,-29.420833,-19.00,-15.20,-9.52
0.751818,-0.608158,-9.582084,-0.121748,-0.401323,1.906140,0.723924,10.134936,-29.420833,-18.99,-15.21,-9.40
1.053502,0.057464,-8.887730,0.009148,-0.439407,2.050485,0.723924,10.134936,-29.420833,-18.99,-15.21,-9.28
1.048714,-0.861956,-8.906885,0.185053,-0.649933,2.060739,0.723924,10.134936,-29.420833,-18.99,-15.20,-9.16
1.048714,-0.861956,-8.906885,0.185053,-0.649933,2.060739,0.723924,10.134936,-29.420833,-19.00,-15.20,-9.04
0.239432,-1.527578,-10.214185,0.095569,-0.820777,1.955143,0.723924,10.134936,-29.420833,-19.02,-15.20,-8.92
-0.330417,-1.790954,-10.784034,0.002490,-0.698936,1.605331,0.723924,10.134936,-29.420833,-19.03,-15.20,-8.82
-0.330417,-1.790954,-10.784034,0.002490,-0.698936,1.605331,0.723924,10.134936,-29.420833,-19.05,-15.20,-8.72
-0.679988,-0.660833,-10.185454,-0.142521,-0.493869,1.340742,0.723924,10.134936,-29.420833,-19.05,-15.22,-8.63
-0.689565,0.737452,-9.074487,-0.117753,-0.370563,1.415445,0.723924,10.134936,-29.420833,-19.05,-15.22,-8.55
-1.182796,0.656045,-9.787996,0.151230,-0.363772,1.713724,0.723924,10.134936,-29.420833,-19.05,-15.22,-8.45
-1.182796,0.656045,-9.787996,0.151230,-0.363772,1.713724,0.723924,10.134936,-29.420833,-19.04,-15.21,-8.35
-1.580254,-0.814070,-10.333902,0.454569,-0.260040,1.861265,0.723924,10.134936,-29.420833,-19.03,-15.18,-8.24
-0.866745,-1.948979,-10.740937,0.548446,0.055815,1.662990,0.723924,10.134936,-29.420833,-19.00,-15.15,-8.15
-0.866745,-1.948979,-10.740937,0.548446,0.055815,1.662990,0.723924,10.134936,-29.420833,-18.97,-15.12,-8.06
-0.512385,-1.723913,-10.156722,0.355764,0.110944,1.369238,0.723924,10.134936,-29.420833,-18.95,-15.09,-7.99
-0.124505,-0.919420,-9.337862,0.136050,0.069398,1.144331,-8.868069,12.487689,-27.844717,-18.94,-15.09,-7.92
-0.124505,-0.919420,-9.337862,0.136050,0.069398,1.144331,-8.868069,12.487689,-27.844717,-18.92,-15.08,-7.86
0.067041,-0.713508,-8.921251,0.072799,-0.065760,1.045659,-8.868069,12.487689,-27.844717,-18.91,-15.08,-7.80
-0.225066,-1.340821,-9.419270,0.153227,-0.222756,0.936468,-8.868069,12.487689,-27.844717,-18.92,-15.08,-7.75
-0.225066,-1.340821,-9.419270,0.153227,-0.222756,0.936468,-8.868069,12.487689,-27.844717,-18.92,-15.08,-7.69
-0.632101,-1.608985,-9.993907,0.094637,-0.311174,0.779872,-8.868069,12.487689,-27.844717,-18.93,-15.08,-7.64
-1.106178,-0.833225,-10.003485,-0.132401,-0.299056,0.549505,-8.868069,12.487689,-27.844717,-18.94,-15.09,-7.61
-1.321667,0.445344,-9.213358,-0.170352,-0.410644,0.505695,-8.868069,12.487689,-27.844717,-18.96,-15.11,-7.57
-1.321667,0.445344,-9.213358,-0.170352,-0.410644,0.505695,-8.868069,12.487689,-27.844717,-18.98,-15.13,-7.54
-1.479692,-0.555483,-9.357017,0.158021,-0.207842,0.326995,-10.496898,14.116518,-26.969097,-18.99,-15.12,-7.51
-1.561099,-2.255453,-10.353056,0.238450,0.108813,0.058411,-10.496898,14.116518,-26.969097,-18.99,-15.12,-7.51
-1.561099,-2.255453,-10.353056,0.238450,0.108813,0.058411,-10.496898,14.116518,-26.969097,-18.99,-15.11,-7.51
-2.624179,-2.288974,-10.214185,-0.145051,0.484591,-0.111635,-10.496898,14.116518,-26.969097,-18.98,-15.12,-7.52
-0.938575,0.000000,-9.883769,-0.476487,1.152522,0.124724,-10.496898,14.116518,-26.969097,-18.92,-15.15,-7.53
-0.938575,0.000000,-9.883769,-0.476487,1.152522,0.124724,-10.496898,14.116518,-26.969097,-18.86,-15.17,-7.54
-0.330417,-0.033521,-9.275610,-0.076607,1.105649,0.181850,-10.496898,14.116518,-26.969097,-18.80,-15.18,-7.55
0.124505,-1.278569,-9.902923,0.293045,0.813629,0.354692,-10.496898,14.116518,-26.969097,-18.76,-15.16,-7.54
0.124505,-1.278569,-9.902923,0.293045,0.813629,0.354692,-10.496898,14.116518,-26.969097,-18.71,-15.14,-7.53
-1.130121,-2.092639,-9.783207,0.303432,0.381791,1.040599,-12.125727,15.745347,-28.194965,-18.68,-15.13,-7.48
0.718297,-0.756606,-10.309958,0.124198,0.702308,1.632496,-12.125727,15.745347,-28.194965,-18.63,-15.12,-7.40
0.071830,-0.114928,-10.118412,0.064942,0.378462,1.125822,-12.125727,15.745347,-28.194965,-18.60,-15.12,-7.34
0.071830,-0.114928,-10.118412,0.064942,0.378462,1.125822,-12.125727,15.745347,-28.194965,-18.57,-15.12,-7.28
0.009577,-0.220278,-9.764053,0.216878,0.292574,0.704237,-12.125727,15.745347,-28.194965,-18.55,-15.11,-7.25
-0.234644,-0.660833,-10.094470,0.317414,0.197498,0.620080,-12.125727,15.745347,-28.194965,-18.54,-15.10,-7.22
-0.234644,-0.660833,-10.094470,0.317414,0.197498,0.620080,-12.125727,15.745347,-28.194965,-18.53,-15.08,-7.19
0.220278,-1.355187,-9.716166,0.270808,0.125991,0.596377,-12.125727,15.745347,-28.194965,-18.52,-15.07,-7.15
0.229855,-1.723913,-9.802362,0.191577,-0.019420,0.526602,-12.125727,15.745347,-28.194965,-18.52,-15.07,-7.12
0.229855,-1.723913,-9.802362,0.191577,-0.019420,0.526602,-12.125727,15.745347,-28.194965,-18.52,-15.06,-7.09
0.344783,-1.776588,-9.218147,-0.095516,0.312149,0.049356,-15.202404,15.202404,-28.019840,-18.51,-15.07,-7.10
0.205912,-0.210700,-9.419270,-0.524291,0.265409,0.055481,-15.202404,15.202404,-28.019840,-18.51,-15.11,-7.10
-0.287319,-0.718297,-9.917289,-0.411505,0.012805,0.193568,-15.202404,15.202404,-28.019840,-18.51,-15.14,-7.09
-0.287319,-0.718297,-9.917289,-0.411505,0.012805,0.193568,-15.202404,15.202404,-28.019840,-18.52,-15.17,-7.07
-0.023943,-0.833225,-9.989119,-0.174480,0.116803,0.167469,-15.202404,15.202404,-28.019840,-18.52,-15.18,-7.07
-0.081407,-0.972095,-10.161510,0.058151,0.120798,0.019395,-15.202404,15.202404,-28.019840,-18.52,-15.19,-7.07
-0.081407,-0.972095,-10.161510,0.058151,0.120798,0.019395,-15.202404,15.202404,-28.019840,-18.53,-15.19,-7.07
0.033521,-0.924209,-9.634759,0.157755,0.122529,-0.112301,-15.202404,15.202404,-28.019840,-18.53,-15.19,-7.08
0.282530,-0.818859,-9.371383,0.106222,0.226393,-0.282612,-15.745347,15.383385,-27.494468,-18.54,-15.19,-7.09
0.282530,-0.818859,-9.371383,0.106222,0.226393,-0.282612,-15.745347,15.383385,-27.494468,-18.54,-15.19,-7.11
0.421401,-1.077446,-9.816728,0.058817,0.182317,-0.415506,-15.745347,15.383385,-27.494468,-18.55,-15.19,-7.14
0.081407,-1.067868,-10.065737,0.034848,-0.033136,-0.486747,-15.745347,15.383385,-27.494468,-18.57,-15.20,-7.16
0.081407,-1.067868,-10.065737,0.034848,-0.033136,-0.486747,-15.745347,15.383385,-27.494468,-18.59,-15.20,-7.19
0.258587,-0.943364,-10.075315,0.028456,-0.168426,-0.723905,-15.745347,15.383385,-27.494468,-18.62,-15.21,-7.23
0.138871,-0.890688,-10.563756,0.088378,-0.338205,-1.101547,-15.745347,15.383385,-27.494468,-18.66,-15.22,-7.28
0.000000,-0.699142,-9.869402,0.228196,-0.547400,-1.742180,-15.745347,15.383385,-27.494468,-18.73,-15.22,-7.37
0.000000,-0.699142,-9.869402,0.228196,-0.547400,-1.742180,-15.745347,15.383385,-27.494468,-18.80,-15.22,-7.46
0.239432,-0.708720,-9.677857,0.476673,-0.711054,-2.544603,-10.677879,14.659461,-25.743228,-18.89,-15.21,-7.59
-2.408690,-0.928998,-7.930000,0.968167,-0.430618,-2.969516,-10.677879,14.659461,-25.743228,-18.96,-15.17,-7.75
-2.408690,-0.928998,-7.930000,0.968167,-0.430618,-2.969516,-10.677879,14.659461,-25.743228,-19.04,-15.13,-7.90
2.116582,-0.316051,-9.960387,0.976822,0.748381,-4.039458,-10.677879,14.659461,-25.743228,-19.07,-15.09,-8.14
4.290628,-2.820513,-9.764053,0.474010,0.481129,-4.338003,-10.677879,14.659461,-25.743228,-19.12,-15.07,-8.39
4.290628,-2.820513,-9.764053,0.474010,0.481129,-4.338003,-10.677879,14.659461,-25.743228,-19.16,-15.06,-8.63
2.935441,-0.957729,-9.036178,0.182123,-1.498828,-4.338003,-10.677879,14.659461,-25.743228,-19.32,-15.08,-8.85
-2.408690,-4.530060,-8.964348,1.301067,-2.381680,-4.338003,-10.677879,14.659461,-25.743228,-19.53,-15.05,-9.05
-1.072657,-1.824475,-9.922078,0.697586,-1.340235,1.464847,2.352753,11.401803,-23.291492,-19.58,-15.02,-8.95
-1.072657,-1.824475,-9.922078,0.697586,-1.340235,1.464847,2.352753,11.401803,-23.291492,-19.63,-14.99,-8.85
-0.162814,-2.882766,-9.677857,0.504504,-0.770709,0.741921,2.352753,11.401803,-23.291492,-19.67,-14.98,-8.80
-0.603370,-2.116582,-10.104046,0.230327,-0.446198,1.334617,2.352753,11.401803,-23.291492,-19.67,-14.97,-8.72
-0.603370,-2.116582,-10.104046,0.230327,-0.446198,1.334617,2.352753,11.401803,-23.291492,-19.68,-14.96,-8.64
0.100562,-1.297723,-9.831093,0.164546,-0.418101,1.623974,2.352753,11.401803,-23.291492,-19.68,-14.96,-8.54
-1.053502,-2.978539,-9.534197,0.414088,-0.637815,1.239940,2.352753,11.401803,-23.291492,-19.70,-14.94,-8.47
-1.053502,-2.978539,-9.534197,0.414088,-0.637815,1.239940,2.352753,11.401803,-23.291492,-19.72,-14.93,-8.39
-2.399112,-3.059946,-9.285188,0.175465,-0.525162,1.152720,2.352753,11.401803,-23.291492,-19.73,-14.92,-8.32
-2.293762,-2.451787,-8.504638,-0.054636,-0.245393,1.013035,2.352753,11.401803,-23.291492,-19.73,-14.93,-8.26
-2.293762,-2.451787,-8.504638,-0.054636,-0.245393,1.013035,2.352753,11.401803,-23.291492,-19.73,-14.94,-8.20
-1.197162,-1.934614,-9.141529,-0.192723,0.074325,1.061772,-0.180981,11.763765,-23.991989,-19.72,-14.96,-8.14
-0.569849,-2.121371,-9.893346,-0.141323,0.129453,0.911967,-0.180981,11.763765,-23.991989,-19.70,-14.97,-8.09
-1.556310,-2.504462,-9.639548,-0.113093,-0.053376,0.789859,-0.180981,11.763765,-23.991989,-19.69,-14.98,-8.05
-1.556310,-2.504462,-9.639548,-0.113093,-0.053376,0.789859,-0.180981,11.763765,-23.991989,-19.69,-14.99,-8.01
-1.848418,-2.504462,-9.400115,-0.114691,-0.048848,0.923552,-0.180981,11.763765,-23.991989,-19.68,-15.00,-7.95
-1.843629,-2.509251,-9.218147,-0.153574,0.038238,0.829674,-0.180981,11.763765,-23.991989,-19.67,-15.02,-7.91
-1.843629,-2.509251,-9.218147,-0.153574,0.038238,0.829674,-0.180981,11.763765,-23.991989,-19.65,-15.03,-7.86
-0.368726,-1.647295,-9.835883,-0.327747,0.250495,1.150590,-0.180981,11.763765,-23.991989,-19.63,-15.05,-7.80
0.268164,-1.077446,-9.969964,-0.349585,0.192038,1.100655,-2.714715,11.763765,-23.991989,-19.60,-15.07,-7.75
0.268164,-1.077446,-9.969964,-0.349585,0.192038,1.100655,-2.714715,11.763765,-23.991989,-19.58,-15.10,-7.69
-0.220278,-0.833225,-10.094470,-0.298185,0.044364,0.955244,-2.714715,11.763765,-23.991989,-19.57,-15.12,-7.64
-0.636890,-1.470115,-9.989119,-0.095915,-0.090128,0.806105,-2.714715,11.763765,-23.991989,-19.56,-15.13,-7.59
-0.636890,-1.470115,-9.989119,-0.095915,-0.090128,0.806105,-2.714715,11.763765,-23.991989,-19.56,-15.14,-7.54
-1.896304,-1.709547,-9.237301,-0.050774,-0.195325,0.677206,-2.714715,11.763765,-23.991989,-19.56,-15.15,-7.50
-1.173219,-1.446171,-9.361806,-0.149446,-0.064961,0.709164,-2.714715,11.763765,-23.991989,-19.56,-15.16,-7.46
-1.139698,-0.876322,-9.179838,-0.164759,0.012006,0.445241,-2.714715,11.763765,-23.991989,-19.55,-15.18,-7.44
-1.139698,-0.876322,-9.179838,-0.164759,0.012006,0.445241,-2.714715,11.763765,-23.991989,-19.55,-15.19,-7.41
-0.895477,-1.661661,-9.912501,-0.049975,0.113740,0.239642,-4.524525,12.125727,-23.291492,-19.54,-15.20,-7.40
-0.517174,-1.268992,-9.998696,-0.149046,0.110944,0.499304,-4.524525,12.125727,-23.291492,-19.54,-15.22,-7.38
-0.517174,-1.268992,-9.998696,-0.149046,0.110944,0.499304,-4.524525,12.125727,-23.291492,-19.53,-15.23,-7.35
-1.043925,-1.158853,-9.859826,-0.068884,-0.079742,0.490382,-4.524525,12.125727,-23.291492,-19.53,-15.24,-7.32
-1.910670,-1.881938,-9.749687,0.043104,-0.133272,0.337781,-4.524525,12.125727,-23.291492,-19.53,-15.25,-7.30
-1.910670,-1.881938,-9.749687,0.043104,-0.133272,0.337781,-4.524525,12.125727,-23.291492,-19.54,-15.25,-7.28
-2.810936,-2.423056,-9.562930,-0.077805,-0.006903,0.289710,-4.524525,12.125727,-23.291492,-19.54,-15.27,-7.26
-1.182796,0.028732,-9.419270,-0.365564,0.265676,0.664023,-4.524525,12.125727,-23.291492,-19.52,-15.29,-7.23
-1.182796,0.028732,-9.419270,-0.365564,0.265676,0.664023,-4.524525,12.125727,-23.291492,-19.50,-15.32,-7.19
-1.005616,-0.689565,-9.524621,-0.057432,0.231454,0.306488,-4.524525,12.125727,-23.291492,-19.49,-15.32,-7.18
-1.532367,-1.240260,-9.878980,0.066673,0.182850,0.171464,-8.144145,11.039841,-26.443725,-19.48,-15.32,-7.17
-1.532367,-1.240260,-9.878980,0.066673,0.182850,0.171464,-8.144145,11.039841,-26.443725,-19.47,-15.32,-7.17
-1.628140,-1.580254,-9.974753,0.065608,0.147829,0.246699,-8.144145,11.039841,-26.443725,-19.46,-15.32,-7.15
-1.881938,-1.192373,-9.242090,-0.017084,0.121996,0.304490,-8.144145,11.039841,-26.443725,-19.45,-15.33,-7.14
-1.556310,-0.866745,-9.175049,-0.017084,0.187244,0.287579,-8.144145,11.039841,-26.443725,-19.44,-15.33,-7.12
-1.556310,-0.866745,-9.175049,-0.017084,0.187244,0.287579,-8.144145,11.039841,-26.443725,-19.43,-15.34,-7.11
-1.388708,-1.230682,-9.342652,0.084650,0.220934,0.145631,-8.144145,11.039841,-26.443725,-19.42,-15.33,-7.11
-1.115755,-1.379130,-9.553352,0.058417,0.288047,0.141103,-8.144145,11.039841,-26.443725,-19.41,-15.33,-7.10
-1.115755,-1.379130,-9.553352,0.058417,0.288047,0.141103,-8.144145,11.039841,-26.443725,-19.39,-15.33,-7.10
-0.239432,-1.302512,-10.166299,0.002890,0.354227,0.147495,-8.687088,12.306708,-25.568103,-19.37,-15.34,-7.09
-0.019155,-1.192373,-10.329113,-0.012158,0.297634,0.158014,-8.687088,12.306708,-25.568103,-19.36,-15.34,-7.09
-0.019155,-1.192373,-10.329113,-0.012158,0.297634,0.158014,-8.687088,12.306708,-25.568103,-19.35,-15.34,-7.08
-0.038309,-1.221105,-10.333902,-0.005633,0.202824,0.175592,-8.687088,12.306708,-25.568103,-19.34,-15.35,-7.07
-0.474076,-1.364764,-10.084892,-0.013755,0.110278,0.160944,-8.687088,12.306708,-25.568103,-19.34,-15.36,-7.07
-0.474076,-1.364764,-10.084892,-0.013755,0.110278,0.160944,-8.687088,12.306708,-25.568103,-19.33,-15.36,-7.06
-0.646467,-1.130121,-9.740109,-0.068751,0.081116,0.127654,-8.687088,12.306708,-25.568103,-19.33,-15.37,-7.05
-0.857168,-1.221105,-9.524621,-0.033330,0.063539,0.025520,-8.687088,12.306708,-25.568103,-19.33,-15.38,-7.05
-0.828436,-0.943364,-9.333074,-0.051573,0.107748,0.060941,-8.506107,13.211613,-26.093477,-19.33,-15.39,-7.05
-0.828436,-0.943364,-9.333074,-0.051573,0.107748,0.060941,-8.506107,13.211613,-26.093477,-19.33,-15.40,-7.05
-1.326455,-0.967307,-9.701800,0.338586,-0.413574,-0.921115,-8.506107,13.211613,-26.093477,-19.37,-15.39,-7.09
-0.277742,-1.862784,-10.142355,0.503172,-0.451791,-1.196090,-8.506107,13.211613,-26.093477,-19.42,-15.37,-7.15
-0.277742,-1.862784,-10.142355,0.503172,-0.451791,-1.196090,-8.506107,13.211613,-26.093477,-19.47,-15.35,-7.21
-1.743068,-2.049541,-9.869402,0.263218,-0.527293,-0.997149,-8.506107,13.211613,-26.093477,-19.52,-15.35,-7.25
-0.814070,-1.848418,-9.620393,-0.355977,-0.081073,-0.353587,-8.506107,13.211613,-26.093477,-19.53,-15.38,-7.27
-0.814070,-1.848418,-9.620393,-0.355977,-0.081073,-0.353587,-8.506107,13.211613,-26.093477,-19.55,-15.41,-7.29
-1.019982,0.560272,-9.146317,-0.622031,0.121596,0.517147,-8.506107,13.211613,-26.093477,-19.54,-15.45,-7.26
-0.493231,-0.972095,-9.912501,-0.636146,0.185913,0.216339,-7.420221,10.315917,-25.743228,-19.53,-15.49,-7.25
-0.493231,-0.972095,-9.912501,-0.636146,0.185913,0.216339,-7.420221,10.315917,-25.743228,-19.52,-15.53,-7.24
-1.067868,-0.656045,-10.051371,-0.485275,0.227459,0.831272,-7.420221,10.315917,-25.743228,-19.50,-15.55,-7.20
-0.229855,0.205912,-9.740109,-0.152775,0.098959,0.850979,-7.420221,10.315917,-25.743228,-19.48,-15.57,-7.15
-0.229855,0.205912,-9.740109,-0.152775,0.098959,0.850979,-7.420221,10.315917,-25.743228,-19.47,-15.58,-7.11
-1.446171,-1.302512,-9.902923,0.266813,-0.110368,0.556163,-7.420221,10.315917,-25.743228,-19.47,-15.56,-7.07
-1.503635,-2.265030,-9.706589,0.175066,0.106549,0.464416,-7.420221,10.315917,-25.743228,-19.46,-15.56,-7.05
-10.242918,7.135085,-7.767186,-0.162229,1.266773,-1.797308,-7.420221,10.315917,-25.743228,-19.42,-15.57,-7.17
-10.242918,7.135085,-7.767186,-0.162229,1.266773,-1.797308,-7.420221,10.315917,-25.743228,-19.37,-15.57,-7.28
5.396806,2.916286,-10.913328,-0.438669,2.875347,-4.338003,-7.420221,10.315917,-25.743228,-19.29,-15.59,-7.57
-1.288146,-4.372035,-9.495888,0.838602,0.325731,2.018660,-5.972373,11.401803,-26.793972,-19.24,-15.54,-7.46
-1.288146,-4.372035,-9.495888,0.838602,0.325731,2.018660,-5.972373,11.401803,-26.793972,-19.19,-15.49,-7.35
1.767011,-0.229855,-9.481522,0.576410,0.469411,3.399131,-5.972373,11.401803,-26.793972,-19.11,-15.45,-7.17
-1.144487,-3.878804,-9.309131,0.591990,0.323334,2.660225,-5.972373,11.401803,-26.793972,-19.06,-15.42,-7.03
-1.144487,-3.878804,-9.309131,0.591990,0.323334,2.660225,-5.972373,11.401803,-26.793972,-19.00,-15.38,-6.89
-0.014366,-2.111793,-10.190242,0.061746,0.689657,4.102482,-5.972373,11.401803,-26.793972,-18.90,-15.37,-6.67
-0.272953,-1.867572,-10.118412,-0.054636,0.944925,-4.338136,-5.972373,11.401803,-26.793972,-18.92,-15.38,-6.92
-0.272953,-1.867572,-10.118412,-0.054636,0.944925,-4.338136,-5.972373,11.401803,-26.793972,-18.94,-15.39,-7.18
0.474076,-1.767011,-9.787996,0.149898,1.354259,-4.338136,-5.972373,11.401803,-26.793972,-18.93,-15.38,-7.44
0.814070,-1.757434,-9.730532,0.195972,1.392343,-4.338136,-19.183984,18.822023,-30.121328,-18.93,-15.38,-7.69
0.138871,-2.063907,-9.462368,0.093572,1.372768,-4.338136,-19.183984,18.822023,-30.121328,-18.93,-15.38,-7.96
0.138871,-2.063907,-9.462368,0.093572,1.372768,-4.338136,-19.183984,18.822023,-30.121328,-18.93,-15.38,-8.22
1.331244,-1.872361,-10.027428,-0.022011,1.447205,-4.338136,-19.183984,18.822023,-30.121328,-18.93,-15.39,-8.48
1.316878,-1.661661,-9.888557,-0.044649,1.059177,-4.338136,-19.183984,18.822023,-30.121328,-18.95,-15.40,-8.73
1.316878,-1.661661,-9.888557,-0.044649,1.059177,-4.338136,-19.183984,18.822023,-30.121328,-18.97,-15.41,-8.99
0.584215,-2.169257,-9.610816,0.091175,0.785799,-4.338136,-19.183984,18.822023,-30.121328,-19.00,-15.41,-9.24
-0.162814,-2.006443,-9.194204,0.325536,0.960904,-4.338136,-19.183984,18.822023,-30.121328,-19.02,-15.40,-9.50
-0.162814,-2.006443,-9.194204,0.325536,0.960904,-4.338136,-19.183984,18.822023,-30.121328,-19.05,-15.40,-9.75
1.398285,-2.528406,-9.735321,0.639927,1.485289,-4.338136,-26.242244,44.702304,-33.098438,-19.04,-15.37,-10.01
1.656872,-2.475731,-9.878980,0.795192,1.238410,-4.338136,-26.242244,44.702304,-33.098438,-19.04,-15.33,-10.27
0.766184,-1.575465,-9.912501,0.609833,0.626007,-4.338136,-26.242244,44.702304,-33.098438,-19.08,-15.31,-10.53
0.766184,-1.575465,-9.912501,0.609833,0.626007,-4.338136,-26.242244,44.702304,-33.098438,-19.12,-15.29,-10.78
0.335205,-1.814897,-9.553352,0.490255,0.288047,-4.338136,-26.242244,44.702304,-33.098438,-19.18,-15.28,-11.03
-0.162814,-1.867572,-9.218147,0.317946,0.129586,3.412846,-26.242244,44.702304,-33.098438,-19.13,-15.25,-10.84
-0.162814,-1.867572,-9.218147,0.317946,0.129586,3.412846,-26.242244,44.702304,-33.098438,-19.08,-15.23,-10.66
-0.670411,-5.032868,-9.294765,1.026891,0.176858,3.123090,-26.242244,44.702304,-33.098438,-19.03,-15.17,-10.49
-0.359149,-2.466153,-9.285188,0.228729,0.585127,2.471804,-14.840442,62.257461,-39.578025,-18.96,-15.15,-10.36
-0.359149,-2.466153,-9.285188,0.228729,0.585127,2.471804,-14.840442,62.257461,-39.578025,-18.90,-15.13,-10.24
-1.087023,-0.742240,-9.064910,-0.194321,0.484724,2.002015,-14.840442,62.257461,-39.578025,-18.85,-15.14,-10.14
-1.288146,-1.005616,-9.510254,0.327667,0.415880,1.916660,-14.840442,62.257461,-39.578025,-18.80,-15.12,-10.04
-0.646467,-2.207566,-10.242918,0.410493,0.297101,1.423035,-14.840442,62.257461,-39.578025,-18.77,-15.10,-9.97
-0.646467,-2.207566,-10.242918,0.410493,0.297101,1.423035,-14.840442,62.257461,-39.578025,-18.73,-15.07,-9.90
-0.234644,-2.734318,-10.065737,0.062678,0.055283,0.893990,-14.840442,62.257461,-39.578025,-18.72,-15.07,-9.85
-0.086196,-2.801359,-9.802362,-0.272485,-0.166695,0.405825,-14.840442,62.257461,-39.578025,-18.73,-15.09,-9.83
-0.086196,-2.801359,-9.802362,-0.272485,-0.166695,0.405825,-14.840442,62.257461,-39.578025,-18.74,-15.12,-9.81
-1.288146,-1.561099,-9.404904,-0.443197,-0.318498,0.518745,-14.840442,62.257461,-39.578025,-18.75,-15.15,-9.78
-0.569849,-1.829263,-9.558140,-0.166890,-0.090128,1.292139,-9.411012,64.067276,-37.826786,-18.74,-15.16,-9.71
-0.569849,-1.829263,-9.558140,-0.166890,-0.090128,1.292139,-9.411012,64.067276,-37.826786,-18.73,-15.18,-9.64
-0.670411,-2.001655,-9.467156,-0.130004,0.070996,1.188807,-9.411012,64.067276,-37.826786,-18.72,-15.19,-9.58
-0.723086,-2.288974,-9.519831,-0.147448,0.159680,1.264308,-9.411012,64.067276,-37.826786,-18.69,-15.20,-9.52
-0.723086,-2.288974,-9.519831,-0.147448,0.159680,1.264308,-9.411012,64.067276,-37.826786,-18.67,-15.21,-9.45
-0.780550,-2.236298,-9.687434,-0.291128,0.262214,1.540482,-9.411012,64.067276,-37.826786,-18.64,-15.23,-9.37
-1.101389,-1.508424,-10.353056,-0.337867,0.323201,1.833701,-9.411012,64.067276,-37.826786,-18.59,-15.25,-9.28
-1.498847,-0.967307,-9.946022,-0.359439,0.307088,1.803340,-9.411012,64.067276,-37.826786,-18.55,-15.27,-9.19
-1.498847,-0.967307,-9.946022,-0.359439,0.307088,1.803340,-9.411012,64.067276,-37.826786,-18.51,-15.29,-9.10
-0.991250,-1.738279,-9.529409,-0.272752,0.378196,1.673110,-4.886487,64.972175,-38.702404,-18.47,-15.30,-9.01
-0.823647,-1.886727,-9.208569,-0.325883,0.477533,1.620645,-4.886487,64.972175,-38.702404,-18.42,-15.32,-8.94
-0.823647,-1.886727,-9.208569,-0.325883,0.477533,1.620645,-4.886487,64.972175,-38.702404,-18.38,-15.33,-8.86
-0.775761,-1.814897,-9.055333,-0.384739,0.614954,1.593214,-4.886487,64.972175,-38.702404,-18.32,-15.35,-8.78
-1.340821,-0.263376,-10.539813,-0.543866,0.665422,1.322632,-4.886487,64.972175,-38.702404,-18.27,-15.38,-8.72
-1.340821,-0.263376,-10.539813,-0.543866,0.665422,1.322632,-4.886487,64.972175,-38.702404,-18.22,-15.41,-8.66
-0.967307,-0.186757,-10.736148,-0.548926,0.637459,1.020359,-4.886487,64.972175,-38.702404,-18.17,-15.44,-8.62
-0.900266,-0.483653,-10.175876,-0.134265,0.618816,1.084276,-4.886487,64.972175,-38.702404,-18.12,-15.45,-8.57
-0.900266,-0.483653,-10.175876,-0.134265,0.618816,1.084276,-4.886487,64.972175,-38.702404,-18.08,-15.46,-8.53
-1.805320,0.531540,-9.653914,-0.086993,0.569414,1.210512,-0.723924,62.981388,-36.776039,-18.03,-15.46,-8.47
-0.986461,-0.794915,-9.294765,-0.073544,0.607897,1.372701,-0.723924,62.981388,-36.776039,-17.98,-15.46,-8.41
-0.598581,-0.804493,-9.744898,0.184520,0.741723,1.113305,-0.723924,62.981388,-36.776039,-17.92,-15.45,-8.36
-0.598581,-0.804493,-9.744898,0.184520,0.741723,1.113305,-0.723924,62.981388,-36.776039,-17.87,-15.44,-8.32
0.363937,-2.815725,-10.391366,1.034614,0.777010,1.382688,-0.723924,62.981388,-36.776039,-17.81,-15.38,-8.26
0.440556,-2.087850,-9.668279,0.365085,0.764360,1.289209,-0.723924,62.981388,-36.776039,-17.75,-15.35,-8.20
0.440556,-2.087850,-9.668279,0.365085,0.764360,1.289209,-0.723924,62.981388,-36.776039,-17.69,-15.33,-8.15
0.421401,-1.508424,-9.749687,-0.052239,0.715490,1.276958,-0.723924,62.981388,-36.776039,-17.64,-15.33,-8.09
0.474076,-1.048714,-9.888557,-0.130404,0.667819,1.403727,-0.723924,62.981388,-36.776039,-17.59,-15.34,-8.03
0.474076,-1.048714,-9.888557,-0.130404,0.667819,1.403727,-0.723924,62.981388,-36.776039,-17.53,-15.35,-7.96
0.450133,-1.115755,-9.692223,-0.039588,0.608563,1.395071,2.714715,66.781990,-37.301414,-17.48,-15.35,-7.90
0.612947,-1.465326,-9.768841,0.008083,0.510024,1.351528,2.714715,66.781990,-37.301414,-17.44,-15.35,-7.84
0.612947,-1.465326,-9.768841,0.008083,0.510024,1.351528,2.714715,66.781990,-37.301414,-17.39,-15.35,-7.78
0.608158,-1.656872,-9.783207,-0.069150,0.370473,1.336614,2.714715,66.781990,-37.301414,-17.35,-15.35,-7.71
0.392669,-1.125332,-9.395327,-0.200979,0.297235,1.416377,2.714715,66.781990,-37.301414,-17.32,-15.37,-7.64
0.392669,-1.125332,-9.395327,-0.200979,0.297235,1.416377,2.714715,66.781990,-37.301414,-17.29,-15.38,-7.57
0.421401,-0.900266,-9.692223,-0.217357,0.291509,1.388813,2.714715,66.781990,-37.301414,-17.25,-15.39,-7.51
0.440556,-1.230682,-9.543775,-0.159166,0.297767,1.329424,2.714715,66.781990,-37.301414,-17.22,-15.41,-7.44
0.603370,-1.489269,-9.701800,-0.237198,0.294571,1.430892,8.325126,65.877082,-36.425792,-17.18,-15.42,-7.37
0.603370,-1.489269,-9.701800,-0.237198,0.294571,1.430892,8.325126,65.877082,-36.425792,-17.15,-15.44,-7.30
0.474076,-1.240260,-9.979541,-0.420693,0.277793,1.329956,8.325126,65.877082,-36.425792,-17.12,-15.46,-7.24
0.407035,-1.072657,-9.787996,-0.488471,0.248099,1.253922,8.325126,65.877082,-36.425792,-17.09,-15.50,-7.18
0.407035,-1.072657,-9.787996,-0.488471,0.248099,1.253922,8.325126,65.877082,-36.425792,-17.06,-15.53,-7.12
0.483653,-0.919420,-9.692223,-0.445594,0.262080,1.158047,8.325126,65.877082,-36.425792,-17.03,-15.55,-7.06
0.632101,-0.895477,-9.740109,-0.443330,0.261281,1.149924,8.325126,65.877082,-36.425792,-17.00,-15.58,-7.01
0.632101,-0.895477,-9.740109,-0.443330,0.261281,1.149924,8.325126,65.877082,-36.425792,-16.97,-15.61,-6.95
0.536328,-0.488442,-10.013062,-0.530150,0.237712,1.112106,8.325126,65.877082,-36.425792,-16.95,-15.65,-6.90
0.828436,-0.780550,-10.228551,-0.609380,0.210281,1.154718,12.668670,62.619422,-34.324306,-16.92,-15.68,-6.84
0.828436,-0.780550,-10.228551,-0.609380,0.210281,1.154718,12.668670,62.619422,-34.324306,-16.89,-15.72,-6.79
0.785338,-0.201123,-9.692223,-0.709250,0.182317,1.161642,12.668670,62.619422,-34.324306,-16.87,-15.77,-6.73
0.766184,-0.402246,-9.649125,-0.656919,0.244237,0.916761,12.668670,62.619422,-34.324306,-16.85,-15.81,-6.69
0.861956,-0.569849,-9.697011,-0.599393,0.271268,0.748713,12.668670,62.619422,-34.324306,-16.82,-15.85,-6.66
0.861956,-0.569849,-9.697011,-0.599393,0.271268,0.748713,12.668670,62.619422,-34.324306,-16.80,-15.89,-6.63
1.024770,-0.761395,-10.166299,-0.641738,0.247433,0.724611,12.668670,62.619422,-34.324306,-16.78,-15.93,-6.60
1.019982,-0.277742,-9.768841,-0.825899,0.204422,0.794919,12.668670,62.619422,-34.324306,-16.76,-15.98,-6.56
1.019982,-0.277742,-9.768841,-0.825899,0.204422,0.794919,12.668670,62.619422,-34.324306,-16.74,-16.03,-6.53
1.058291,0.359149,-9.912501,-0.851998,0.195101,0.899982,15.202404,60.809616,-32.923313,-16.72,-16.08,-6.49
1.110966,0.373515,-9.993907,-0.812716,0.240775,0.950317,15.202404,60.809616,-32.923313,-16.69,-16.13,-6.44
1.110966,0.373515,-9.993907,-0.812716,0.240775,0.950317,15.202404,60.809616,-32.923313,-16.67,-16.19,-6.40
0.972095,1.374342,-9.658702,-0.960257,0.169800,0.819554,15.202404,60.809616,-32.923313,-16.65,-16.25,-6.36
1.015193,0.861956,-9.840671,-0.367961,0.049157,0.703704,15.202404,60.809616,-32.923313,-16.64,-16.27,-6.33
1.015193,0.861956,-9.840671,-0.367961,0.049157,0.703704,15.202404,60.809616,-32.923313,-16.63,-16.30,-6.30
1.053502,0.742240,-9.687434,-0.081001,0.045828,0.700775,15.202404,60.809616,-32.923313,-16.62,-16.31,-6.27
1.067868,0.933786,-9.649125,-0.011359,0.091103,0.783467,15.202404,60.809616,-32.923313,-16.60,-16.32,-6.23
1.149275,0.957729,-9.682645,0.118473,0.133448,0.877212,15.202404,60.809616,-32.923313,-16.58,-16.31,-6.19
1.149275,0.957729,-9.682645,0.118473,0.133448,0.877212,15.202404,60.809616,-32.923313,-16.57,-16.31,-6.15
0.991250,1.350399,-9.831093,0.136849,0.137043,0.833802,17.374176,57.551956,-29.420833,-16.55,-16.31,-6.11
1.034348,1.268992,-10.041794,0.227397,0.101622,0.646712,17.374176,57.551956,-29.420833,-16.54,-16.30,-6.09
1.034348,1.268992,-10.041794,0.227397,0.101622,0.646712,17.374176,57.551956,-29.420833,-16.52,-16.30,-6.06
1.115755,0.464499,-9.845459,0.580804,0.041567,0.459089,17.374176,57.551956,-29.420833,-16.52,-16.27,-6.04
1.235471,0.234644,-10.118412,0.778414,0.008544,0.275328,17.374176,57.551956,-29.420833,-16.52,-16.23,-6.03
1.235471,0.234644,-10.118412,0.778414,0.008544,0.275328,17.374176,57.551956,-29.420833,-16.51,-16.19,-6.02
1.053502,0.196335,-9.855037,0.748053,-0.161768,-0.059303,17.374176,57.551956,-29.420833,-16.53,-16.16,-6.03
1.053502,-0.196335,-9.744898,0.618888,-0.158439,-0.413109,17.374176,57.551956,-29.420833,-16.55,-16.13,-6.06
1.427017,-0.876322,-9.079276,0.387722,-0.030606,-0.798341,17.374176,59.361766,-31.172073,-16.57,-16.12,-6.11
1.427017,-0.876322,-9.079276,0.387722,-0.030606,-0.798341,17.374176,59.361766,-31.172073,-16.58,-16.11,-6.16
1.292935,-0.895477,-9.697011,-0.024541,-0.054841,-1.224454,17.374176,59.361766,-31.172073,-16.61,-16.12,-6.23
1.537156,0.387880,-10.942060,-0.570498,-0.217962,-1.881865,17.374176,59.361766,-31.172073,-16.66,-16.16,-6.34
1.537156,0.387880,-10.942060,-0.570498,-0.217962,-1.881865,17.374176,59.361766,-31.172073,-16.70,-16.21,-6.44
1.316878,1.178007,-10.329113,-0.874769,-0.548598,-2.983631,17.374176,59.361766,-31.172073,-16.78,-16.28,-6.60
0.622524,0.474076,-9.682645,-0.695269,-0.871112,-3.744109,17.374176,59.361766,-31.172073,-16.90,-16.34,-6.80
0.622524,0.474076,-9.682645,-0.695269,-0.871112,-3.744109,17.374176,59.361766,-31.172073,-17.01,-16.40,-7.00
3.342476,0.593792,-9.907711,-0.358640,-1.184970,-3.502823,17.374176,59.361766,-31.172073,-17.13,-16.44,-7.18
-0.991250,2.830090,-8.973926,-0.378880,-1.684187,-3.397892,9.411012,60.809616,-30.821825,-17.29,-16.49,-7.35
-0.785338,2.978539,-9.471945,1.177761,-0.862590,-3.214531,9.411012,60.809616,-30.821825,-17.39,-16.44,-7.51
-0.785338,2.978539,-9.471945,1.177761,-0.862590,-3.214531,9.411012,60.809616,-30.821825,-17.50,-16.39,-7.68
-1.168430,-0.201123,-10.606855,2.744922,-0.198254,-4.338003,9.411012,60.809616,-30.821825,-17.58,-16.25,-7.92
1.374342,-4.247530,-9.725744,2.965036,-0.066426,-4.338003,9.411012,60.809616,-30.821825,-17.66,-16.10,-8.17
1.374342,-4.247530,-9.725744,2.965036,-0.066426,-4.338003,9.411012,60.809616,-30.821825,-17.74,-15.95,-8.41
-4.860477,-6.201298,-8.911673,1.278563,-0.298657,-3.214797,9.411012,60.809616,-30.821825,-17.81,-15.89,-8.59
0.517174,1.546733,-9.486311,-0.300715,1.237877,1.587355,9.411012,60.809616,-30.821825,-17.72,-15.90,-8.52
0.517174,1.546733,-9.486311,-0.300715,1.237877,1.587355,9.411012,60.809616,-30.821825,-17.63,-15.91,-8.46
1.388708,0.483653,-10.008274,0.497313,1.139738,0.522207,9.411012,60.809616,-30.821825,-17.56,-15.88,-8.46
0.521963,-3.481347,-9.917289,0.714897,0.580200,-0.669975,1.809810,65.877082,-35.375049,-17.54,-15.84,-8.51
0.521963,-3.481347,-9.917289,0.714897,0.580200,-0.669975,1.809810,65.877082,-35.375049,-17.53,-15.81,-8.56
1.292935,0.325628,-9.428847,-0.107101,0.510823,0.293705,1.809810,65.877082,-35.375049,-17.50,-15.81,-8.55
1.398285,-1.585042,-8.849421,0.281727,0.251694,-0.099118,1.809810,65.877082,-35.375049,-17.49,-15.80,-8.57
1.398285,-1.585042,-8.849421,0.281727,0.251694,-0.099118,1.809810,65.877082,-35.375049,-17.48,-15.79,-8.58
1.307301,0.067041,-9.242090,0.078391,-0.033668,-0.235340,1.809810,65.877082,-35.375049,-17.49,-15.80,-8.60
0.732663,-1.872361,-9.668279,0.284789,-0.187468,-0.551729,1.809810,65.877082,-35.375049,-17.51,-15.79,-8.63
0.158025,-1.695181,-10.003485,0.192376,-0.162035,-0.494736,1.809810,65.877082,-35.375049,-17.53,-15.79,-8.66
0.158025,-1.695181,-10.003485,0.192376,-0.162035,-0.494736,1.809810,65.877082,-35.375049,-17.56,-15.79,-8.69
0.047886,-1.747856,-9.663491,0.110217,0.014403,-0.146123,-0.361962,65.515121,-36.776039,-17.56,-15.79,-8.70
0.526751,-1.934614,-9.687434,0.033383,0.145166,0.219534,-0.361962,65.515121,-36.776039,-17.55,-15.79,-8.70
0.526751,-1.934614,-9.687434,0.033383,0.145166,0.219534,-0.361962,65.515121,-36.776039,-17.55,-15.79,-8.69
0.507597,-1.537156,-9.859826,-0.087792,0.167270,0.290109,-0.361962,65.515121,-36.776039,-17.54,-15.80,-8.68
0.665622,-1.288146,-10.032217,-0.106834,0.230921,0.375598,-0.361962,65.515121,-36.776039,-17.52,-15.81,-8.67
0.665622,-1.288146,-10.032217,-0.106834,0.230921,0.375598,-0.361962,65.515121,-36.776039,-17.51,-15.82,-8.66
