AcclerometerX,AcclerometerY,AcclerometerZ,GyroscopeX,GyroscopeY,GyroscopeZ,MagnetometerX,MagnetometerY,MagnetometerZ,Roll,Pitch,Yaw
0.086196,0.100562,-9.922078,0.020757,0.002412,0.229302,-1572.181884,-759.577209,-1925.838623,-0.01,0,0.02
0.086196,0.100562,-9.922078,0.020757,0.002412,0.229302,-1572.181884,-759.577209,-1925.838623,-0.02,0,0.03
0.07183,0.076618,-9.917289,0.025418,0.001479,0.262192,-1572.181884,-759.577209,-1925.838623,-0.02,0.01,0.05
0.277742,0.081407,-9.902923,0.030345,0.00068,0.284164,-1572.181884,-759.577209,-1925.838623,-0.03,0.01,0.07
0.277742,0.081407,-9.902923,0.030345,0.00068,0.284164,-1572.181884,-759.577209,-1925.838623,-0.04,0.02,0.08
0.253798,7.810284,-12.474427,0.239938,0.008004,0.416791,-1572.181884,-759.577209,-1925.838623,-0.05,0.03,0.11
0.91942,-0.622524,-9.730532,1.4734,0.049683,0.693764,-1587.927246,-810.79486,-1927.414794,-0.05,0.12,0.15
0.483653,-1.498847,-9.59645,0.650338,0.025448,0.560204,-1587.927246,-810.79486,-1927.414794,-0.06,0.16,0.18
0.483653,-1.498847,-9.59645,0.650338,0.025448,0.560204,-1587.927246,-810.79486,-1927.414794,-0.07,0.2,0.22
0.507597,-0.660833,-9.845459,0.113037,0.038764,0.834115,-1587.927246,-810.79486,-1927.414794,-0.07,0.2,0.27
0.330417,-0.306473,-9.898135,0.038068,0.040096,0.905089,-1587.927246,-810.79486,-1927.414794,-0.08,0.21,0.32
0.330417,-0.306473,-9.898135,0.038068,0.040096,0.905089,-1587.927246,-810.79486,-1927.414794,-0.09,0.21,0.38
0.569849,-0.325628,-9.893346,0.05711,0.038897,0.879789,-1587.927246,-810.79486,-1927.414794,-0.09,0.22,0.43
0.316051,0.038309,-9.979541,0.047389,0.030109,0.837976,-1587.927246,-810.79486,-1927.414794,-0.1,0.22,0.48
0.316051,0.038309,-9.979541,0.047389,0.030109,0.837976,-1587.927246,-810.79486,-1927.414794,-0.11,0.23,0.53
0.167603,0.253798,-9.912501,0.042862,0.01373,0.657278,-1587.927246,-810.79486,-1927.414794,-0.11,0.23,0.57
-0.07183,-0.186757,-9.859826,0.025018,0.006273,0.291088,-1532.00415,-902.190246,-2002.893188,-0.12,0.24,0.59
-0.35436,-0.794915,-9.811939,0.009838,0.004143,0.058058,-1532.00415,-902.190246,-2002.893188,-0.13,0.24,0.59
-0.35436,-0.794915,-9.811939,0.009838,0.004143,0.058058,-1532.00415,-902.190246,-2002.893188,-0.14,0.24,0.6
-0.521963,-0.665622,-9.946022,0.006376,0.008004,0.040214,-1532.00415,-902.190246,-2002.893188,-0.14,0.24,0.6
-0.617735,-0.440556,-9.893346,0.005044,-0.013967,-0.113719,-1532.00415,-902.190246,-2002.893188,-0.15,0.25,0.6
-0.617735,-0.440556,-9.893346,0.005044,-0.013967,-0.113719,-1532.00415,-902.190246,-2002.893188,-0.16,0.25,0.59
-0.42619,-0.234644,-9.936444,0.018893,0.002412,0.036619,-1532.00415,-902.190246,-2002.893188,-0.17,0.25,0.6
-0.162814,-0.28253,-9.931655,0.025018,0.002412,0.026632,-1532.00415,-902.190246,-2002.893188,-0.18,0.26,0.6
0.052675,-0.344783,-9.931655,0.027149,0.001213,-0.003995,-1532.00415,-902.190246,-2002.893188,-0.19,0.26,0.6
0.052675,-0.344783,-9.931655,0.027149,0.001213,-0.003995,-1515.353881,-919.564453,-2011.999633,-0.19,0.26,0.6
0.110139,-0.378303,-9.917289,0.028613,0.000281,-0.014115,-1515.353881,-919.564453,-2011.999633,-0.2,0.27,0.6
0.090984,-0.363937,-9.907711,0.027282,-0.002915,-0.00759,-1515.353881,-919.564453,-2011.999633,-0.21,0.27,0.61
0.090984,-0.363937,-9.907711,0.027282,-0.002915,-0.00759,-1515.353881,-919.564453,-2011.999633,-0.22,0.27,0.61
0.124505,-0.359149,-9.902923,0.028347,-0.005711,-0.004128,-1515.353881,-919.564453,-2011.999633,-0.23,0.28,0.61
0.033521,-0.440556,-9.912501,0.035271,-0.01663,-0.093745,-1515.353881,-919.564453,-2011.999633,-0.24,0.28,0.61
0.033521,-0.440556,-9.912501,0.035271,-0.01663,-0.093745,-1515.353881,-919.564453,-2011.999633,-0.24,0.29,0.6
0.023943,-0.359149,-9.917289,0.025151,-0.004246,-0.022504,-1515.353881,-919.564453,-2011.999633,-0.25,0.29,0.6
0.076618,-0.373515,-9.955598,0.02089,-0.001983,-0.026366,-1517.887573,-924.993896,-2023.908081,-0.26,0.29,0.6
-0.378303,-0.53154,-9.912501,0.02129,0.001746,-0.069643,-1517.887573,-924.993896,-2023.908081,-0.27,0.3,0.6
-0.378303,-0.53154,-9.912501,0.02129,0.001746,-0.069643,-1517.887573,-924.993896,-2023.908081,-0.28,0.3,0.6
-0.253798,-0.718297,-9.778418,0.022355,-0.003181,-0.224375,-1517.887573,-924.993896,-2023.908081,-0.28,0.3,0.59
-0.143659,-0.502808,-9.907711,0.020491,-0.012769,-0.285229,-1517.887573,-924.993896,-2023.908081,-0.29,0.31,0.57
-0.143659,-0.502808,-9.907711,0.020491,-0.012769,-0.285229,-1517.887573,-924.993896,-2023.908081,-0.3,0.31,0.56
-0.181969,-0.277742,-9.922078,0.017961,0.001746,-0.164453,-1517.887573,-924.993896,-2023.908081,-0.31,0.32,0.55
-0.263376,-0.229855,-9.907711,0.024485,0.002278,-0.033689,-1517.887573,-924.993896,-2023.908081,-0.32,0.32,0.55
-0.263376,-0.229855,-9.907711,0.024485,0.002278,-0.033689,-1517.887573,-924.993896,-2023.908081,-0.33,0.32,0.55
0.009577,-0.215489,-9.902923,0.029013,0.001613,0.030494,-1517.887573,-924.993896,-2023.908081,-0.33,0.33,0.56
0.277742,-0.368726,-9.941232,0.029013,0.005474,0.115982,-1516.801757,-921.374267,-2020.405639,-0.34,0.33,0.56
0.205912,-0.42619,-9.936444,0.029412,0.002278,0.083358,-1516.801757,-921.374267,-2020.405639,-0.35,0.33,0.57
0.205912,-0.42619,-9.936444,0.029412,0.002278,0.083358,-1516.801757,-921.374267,-2020.405639,-0.36,0.34,0.58
0.138871,-0.411824,-9.917289,0.03607,0.002944,0.021572,-1516.801757,-921.374267,-2020.405639,-0.37,0.34,0.58
-0.004789,-0.363937,-9.907711,0.037269,-0.001317,-0.041146,-1516.801757,-921.374267,-2020.405639,-0.37,0.35,0.58
-0.004789,-0.363937,-9.907711,0.037269,-0.001317,-0.041146,-1516.801757,-921.374267,-2020.405639,-0.38,0.35,0.58
0.028732,-0.392669,-9.907711,0.031543,-0.005844,-0.091614,-1516.801757,-921.374267,-2020.405639,-0.39,0.36,0.58
0.124505,-0.325628,-9.926867,0.027016,-0.007842,-0.119045,-1516.801757,-921.374267,-2020.405639,-0.4,0.36,0.57
0.311262,-0.435767,-9.917289,0.024086,-0.00651,-0.07204,-1531.280151,-909.791442,-2015.852416,-0.41,0.36,0.57
0.311262,-0.435767,-9.917289,0.024086,-0.00651,-0.07204,-1531.280151,-909.791442,-2015.852416,-0.41,0.37,0.57
0.56506,-0.407035,-9.917289,0.02342,-0.006643,-0.035154,-1531.280151,-909.791442,-2015.852416,-0.42,0.37,0.57
0.440556,-0.383092,-9.931655,0.02129,-0.005578,-0.039948,-1531.280151,-909.791442,-2015.852416,-0.43,0.37,0.57
0.440556,-0.383092,-9.931655,0.02129,-0.005578,-0.039948,-1531.280151,-909.791442,-2015.852416,-0.44,0.38,0.57
0.35436,-0.363937,-9.912501,0.023021,-0.00651,-0.052332,-1531.280151,-909.791442,-2015.852416,-0.45,0.38,0.57
0.225066,-0.344783,-9.922078,0.022754,-0.005179,-0.039815,-1531.280151,-909.791442,-2015.852416,-0.46,0.38,0.56
0.225066,-0.344783,-9.922078,0.022754,-0.005179,-0.039815,-1531.280151,-909.791442,-2015.852416,-0.46,0.39,0.56
0.100562,-0.344783,-9.926867,0.022222,-0.003847,-0.015313,-1531.280151,-909.791442,-2015.852416,-0.47,0.39,0.57
0.081407,-0.339994,-9.95081,0.025018,-0.002249,-0.003196,-1531.461181,-909.972473,-2016.027587,-0.48,0.39,0.57
0.10535,-0.373515,-9.946022,0.025418,-0.000518,0.004661,-1531.461181,-909.972473,-2016.027587,-0.49,0.4,0.57
0.10535,-0.373515,-9.946022,0.025418,-0.000518,0.004661,-1531.461181,-909.972473,-2016.027587,-0.5,0.4,0.57
0.110139,-0.359149,-9.941232,0.027814,-0.00145,0.011185,-1531.461181,-909.972473,-2016.027587,-0.5,0.41,0.57
0.153237,-0.445344,-9.907711,0.031143,-0.00438,0.040214,-1531.461181,-909.972473,-2016.027587,-0.51,0.41,0.58
0.153237,-0.445344,-9.907711,0.031143,-0.00438,0.040214,-1531.461181,-909.972473,-2016.027587,-0.52,0.41,0.58
-0.148448,-0.186757,-9.936444,0.030478,0.000547,0.114784,-1531.461181,-909.972473,-2016.027587,-0.53,0.42,0.59
0.196335,-0.483653,-9.874192,0.032076,0.00108,0.10027,-1531.461181,-909.972473,-2016.027587,-0.54,0.42,0.6
0.052675,-0.325628,-9.922078,0.031676,0.00654,0.156463,-1530.375244,-911.058349,-2017.778808,-0.54,0.43,0.61
0.052675,-0.325628,-9.922078,0.031676,0.00654,0.156463,-1530.375244,-911.058349,-2017.778808,-0.55,0.43,0.62
-0.019155,-0.28253,-9.936444,0.030345,0.007472,0.151137,-1530.375244,-911.058349,-2017.778808,-0.56,0.43,0.63
0.17718,-0.430978,-9.907711,0.030345,0.006673,0.134891,-1530.375244,-911.058349,-2017.778808,-0.57,0.44,0.64
0.17718,-0.430978,-9.907711,0.030345,0.006673,0.134891,-1530.375244,-911.058349,-2017.778808,-0.57,0.44,0.65
0.057464,-0.397458,-9.907711,0.028747,0.007472,0.14621,-1530.375244,-911.058349,-2017.778808,-0.58,0.45,0.66
-0.067041,-0.263376,-9.907711,0.027548,0.006007,0.103599,-1530.375244,-911.058349,-2017.778808,-0.59,0.45,0.67
-0.067041,-0.263376,-9.907711,0.027548,0.006007,0.103599,-1530.375244,-911.058349,-2017.778808,-0.59,0.45,0.68
0.023943,-0.320839,-9.912501,0.027948,0.002012,0.037551,-1530.375244,-911.058349,-2017.778808,-0.6,0.46,0.68
0.062252,-0.363937,-9.902923,0.026616,0.001213,0.00799,-1530.375244,-911.058349,-2017.778808,-0.61,0.46,0.68
0.067041,-0.383092,-9.936444,0.025284,0.000281,-0.001332,-1531.461181,-911.782226,-2015.677246,-0.62,0.46,0.68
0.067041,-0.383092,-9.936444,0.025284,0.000281,-0.001332,-1531.461181,-911.782226,-2015.677246,-0.62,0.47,0.68
0.057464,-0.383092,-9.902923,0.024219,-0.001051,-0.002796,-1531.461181,-911.782226,-2015.677246,-0.63,0.47,0.69
0.095773,-0.344783,-9.907711,0.023687,0.000015,-0.001997,-1531.461181,-911.782226,-2015.677246,-0.64,0.47,0.69
0.095773,-0.344783,-9.907711,0.023687,0.000015,-0.001997,-1531.461181,-911.782226,-2015.677246,-0.65,0.48,0.69
0.090984,-0.368726,-9.893346,0.024619,-0.000119,-0.001332,-1531.461181,-911.782226,-2015.677246,-0.65,0.48,0.69
0.114928,-0.378303,-9.902923,0.024086,-0.000252,0.003728,-1531.461181,-911.782226,-2015.677246,-0.66,0.48,0.69
0.172391,-0.397458,-9.926867,0.025418,0.003344,0.02317,-1531.461181,-911.782226,-2015.677246,-0.67,0.49,0.7
0.172391,-0.397458,-9.926867,0.025418,0.003344,0.02317,-1531.461181,-911.782226,-2015.677246,-0.68,0.49,0.7
-0.014366,-0.292108,-9.926867,0.025418,0.001879,0.032624,-1531.461181,-910.69635,-2016.377807,-0.68,0.5,0.7
0.067041,-0.359149,-9.922078,0.026882,0.000814,0.004128,-1531.461181,-910.69635,-2016.377807,-0.69,0.5,0.71
0.067041,-0.359149,-9.922078,0.026882,0.000814,0.004128,-1531.461181,-910.69635,-2016.377807,-0.7,0.5,0.71
0.086196,-0.363937,-9.912501,0.026483,0.00068,-0.004927,-1531.461181,-910.69635,-2016.377807,-0.71,0.51,0.71
0.081407,-0.368726,-9.902923,0.025684,0.000281,-0.004128,-1531.461181,-910.69635,-2016.377807,-0.71,0.51,0.71
0.086196,-0.368726,-9.926867,0.026217,0.000414,-0.001598,-1531.461181,-910.69635,-2016.377807,-0.72,0.51,0.71
0.086196,-0.368726,-9.926867,0.026217,0.000414,-0.001598,-1531.461181,-910.69635,-2016.377807,-0.73,0.52,0.71
0.090984,-0.368726,-9.907711,0.027814,0.001346,-0.000266,-1531.461181,-910.69635,-2016.377807,-0.74,0.52,0.72
0.076618,-0.363937,-9.931655,0.027681,0.001479,-0.000399,-1532.366088,-910.153442,-2014.451416,-0.74,0.52,0.72
0.076618,-0.363937,-9.931655,0.027681,0.001479,-0.000399,-1532.366088,-910.153442,-2014.451416,-0.75,0.53,0.72
0.081407,-0.363937,-9.922078,0.028613,-0.000784,-0.002264,-1532.366088,-910.153442,-2014.451416,-0.76,0.53,0.72
0.095773,-0.368726,-9.926867,0.027415,-0.000119,-0.004394,-1532.366088,-910.153442,-2014.451416,-0.76,0.54,0.72
0.095773,-0.368726,-9.926867,0.027415,-0.000119,-0.004394,-1532.366088,-910.153442,-2014.451416,-0.77,0.54,0.72
0.086196,-0.378303,-9.902923,0.024885,-0.000518,-0.00253,-1532.366088,-910.153442,-2014.451416,-0.78,0.54,0.72
0.086196,-0.363937,-9.912501,0.023287,0.000148,-0.002131,-1532.366088,-910.153442,-2014.451416,-0.79,0.55,0.73
0.086196,-0.359149,-9.898135,0.024352,0.000281,-0.002397,-1532.366088,-910.153442,-2014.451416,-0.79,0.55,0.73
0.086196,-0.359149,-9.898135,0.024352,0.000281,-0.002397,-1532.366088,-910.153442,-2014.451416,-0.8,0.55,0.73
0.07183,-0.373515,-9.902923,0.024619,0.000414,-0.006791,-1531.280151,-910.153442,-2015.852416,-0.81,0.56,0.73
0.086196,-0.363937,-9.912501,0.023287,0.000015,-0.01518,-1531.280151,-910.153442,-2015.852416,-0.81,0.56,0.73
0.086196,-0.363937,-9.912501,0.023287,0.000015,-0.01518,-1531.280151,-910.153442,-2015.852416,-0.82,0.56,0.73
0.110139,-0.368726,-9.907711,0.022488,0.000281,-0.016379,-1531.280151,-910.153442,-2015.852416,-0.83,0.57,0.73
0.100562,-0.359149,-9.917289,0.023953,-0.000252,-0.009854,-1531.280151,-910.153442,-2015.852416,-0.84,0.57,0.73
0.086196,-0.35436,-9.902923,0.026483,0.000148,-0.003329,-1531.280151,-910.153442,-2015.852416,-0.84,0.57,0.74
0.086196,-0.35436,-9.902923,0.026483,0.000148,-0.003329,-1531.280151,-910.153442,-2015.852416,-0.85,0.58,0.74
0.081407,-0.373515,-9.893346,0.027282,0.000281,0.002264,-1531.280151,-910.153442,-2015.852416,-0.86,0.58,0.74
0.081407,-0.35436,-9.902923,0.027681,0.000281,0.003595,-1531.280151,-910.153442,-2015.852416,-0.86,0.58,0.74
0.081407,-0.35436,-9.902923,0.027681,0.000281,0.003595,-1531.280151,-910.153442,-2015.852416,-0.87,0.59,0.74
0.095773,-0.359149,-9.936444,0.025418,0.001213,0.000799,-1530.375244,-910.334411,-2016.377807,-0.88,0.59,0.74
0.10535,-0.373515,-9.893346,0.025418,-0.000385,-0.000932,-1530.375244,-910.334411,-2016.377807,-0.88,0.59,0.75
0.086196,-0.373515,-9.902923,0.025551,-0.000252,-0.001598,-1530.375244,-910.334411,-2016.377807,-0.89,0.6,0.75
0.086196,-0.373515,-9.902923,0.025551,-0.000252,-0.001598,-1530.375244,-910.334411,-2016.377807,-0.9,0.6,0.75
0.081407,-0.359149,-9.912501,0.026217,-0.000385,-0.001598,-1530.375244,-910.334411,-2016.377807,-0.9,0.6,0.75
0.095773,-0.363937,-9.902923,0.027415,-0.000784,-0.003728,-1530.375244,-910.334411,-2016.377807,-0.91,0.61,0.75
0.095773,-0.363937,-9.902923,0.027415,-0.000784,-0.003728,-1530.375244,-910.334411,-2016.377807,-0.92,0.61,0.75
0.090984,-0.363937,-9.883769,0.027149,-0.000917,-0.004394,-1530.375244,-910.334411,-2016.377807,-0.92,0.61,0.75
0.095773,-0.35436,-9.931655,0.026882,-0.000651,-0.004128,-1530.013305,-910.334411,-2014.276245,-0.93,0.62,0.76
0.095773,-0.35436,-9.931655,0.026882,-0.000651,-0.004128,-1530.013305,-910.334411,-2014.276245,-0.94,0.62,0.76
0.095773,-0.373515,-9.907711,0.027149,0.000281,-0.003196,-1530.013305,-910.334411,-2014.276245,-0.94,0.62,0.76
0.086196,-0.363937,-9.898135,0.025551,-0.000518,-0.003595,-1530.013305,-910.334411,-2014.276245,-0.95,0.63,0.76
0.095773,-0.368726,-9.907711,0.024885,-0.000119,-0.006125,-1530.013305,-910.334411,-2014.276245,-0.96,0.63,0.76
0.095773,-0.368726,-9.907711,0.024885,-0.000119,-0.006125,-1530.013305,-910.334411,-2014.276245,-0.96,0.63,0.76
0.090984,-0.368726,-9.917289,0.024352,0.000814,-0.00799,-1530.013305,-910.334411,-2014.276245,-0.97,0.64,0.76
0.086196,-0.383092,-9.898135,0.025551,0.000281,-0.007324,-1530.013305,-910.334411,-2014.276245,-0.98,0.64,0.76
0.086196,-0.383092,-9.898135,0.025551,0.000281,-0.007324,-1530.013305,-910.334411,-2014.276245,-0.98,0.64,0.77
0.090984,-0.349571,-9.936444,0.025684,0.000547,-0.010386,-1530.375244,-910.334411,-2013.575805,-0.99,0.65,0.77
0.081407,-0.35436,-9.902923,0.025551,0.000814,-0.003063,-1530.375244,-910.334411,-2013.575805,-1,0.65,0.77
0.081407,-0.35436,-9.922078,0.02635,0.000414,0.000799,-1530.375244,-910.334411,-2013.575805,-1,0.65,0.77
0.081407,-0.35436,-9.922078,0.02635,0.000414,0.000799,-1530.375244,-910.334411,-2013.575805,-1.01,0.66,0.77
0.081407,-0.349571,-9.931655,0.027681,-0.000119,0.000133,-1530.375244,-910.334411,-2013.575805,-1.01,0.66,0.77
0.086196,-0.363937,-9.898135,0.027948,0.001479,-0.000399,-1530.375244,-910.334411,-2013.575805,-1.02,0.66,0.77
0.086196,-0.363937,-9.898135,0.027948,0.001479,-0.000399,-1530.375244,-910.334411,-2013.575805,-1.03,0.67,0.77
0.095773,-0.359149,-9.898135,0.027149,0.000814,-0.000932,-1530.375244,-910.334411,-2013.575805,-1.03,0.67,0.78
0.07183,-0.363937,-9.912501,0.028081,0.000281,0.000666,-1530.375244,-910.334411,-2013.575805,-1.04,0.67,0.78
0.07183,-0.359149,-9.917289,0.026483,0.00068,-0.001332,-1530.375244,-911.420288,-2013.575805,-1.05,0.68,0.78
0.07183,-0.359149,-9.917289,0.026483,0.00068,-0.001332,-1530.375244,-911.420288,-2013.575805,-1.05,0.68,0.78
0.076618,-0.363937,-9.907711,0.027415,0.000814,-0.001465,-1530.375244,-911.420288,-2013.575805,-1.06,0.68,0.78
0.081407,-0.349571,-9.917289,0.027282,0.000947,-0.000799,-1530.375244,-911.420288,-2013.575805,-1.06,0.69,0.78
0.081407,-0.349571,-9.917289,0.027282,0.000947,-0.000799,-1530.375244,-911.420288,-2013.575805,-1.07,0.69,0.78
0.086196,-0.363937,-9.888557,0.025817,0.000814,-0.001332,-1530.375244,-911.420288,-2013.575805,-1.08,0.69,0.79
0.095773,-0.373515,-9.902923,0.025817,0.000148,0.000533,-1530.375244,-911.420288,-2013.575805,-1.08,0.7,0.79
0.095773,-0.373515,-9.902923,0.025817,0.000148,0.000533,-1530.375244,-911.420288,-2013.575805,-1.09,0.7,0.79
0.090984,-0.368726,-9.898135,0.027415,0.000148,0.000533,-1530.375244,-911.420288,-2013.575805,-1.09,0.7,0.79
0.095773,-0.373515,-9.917289,0.027681,0.00068,-0.001864,-1530.918212,-910.51538,-2014.101196,-1.1,0.71,0.79
0.081407,-0.35436,-9.907711,0.025284,0.000281,-0.001598,-1530.918212,-910.51538,-2014.101196,-1.11,0.71,0.79
0.081407,-0.35436,-9.907711,0.025284,0.000281,-0.001598,-1530.918212,-910.51538,-2014.101196,-1.11,0.71,0.79
0.081407,-0.368726,-9.917289,0.024885,0.000814,-0.000399,-1530.918212,-910.51538,-2014.101196,-1.12,0.72,0.8
0.07183,-0.339994,-9.902923,0.025018,0.000947,-0.000133,-1530.918212,-910.51538,-2014.101196,-1.12,0.72,0.8
0.07183,-0.339994,-9.902923,0.025018,0.000947,-0.000133,-1530.918212,-910.51538,-2014.101196,-1.13,0.72,0.8
0.095773,-0.35436,-9.917289,0.026083,-0.000252,-0.001598,-1530.918212,-910.51538,-2014.101196,-1.14,0.73,0.8
0.100562,-0.368726,-9.893346,0.026882,-0.000252,-0.000799,-1530.918212,-910.51538,-2014.101196,-1.14,0.73,0.8
0.090984,-0.373515,-9.907711,0.027016,0.000148,0.000799,-1530.375244,-910.334411,-2013.926025,-1.15,0.73,0.8
0.090984,-0.373515,-9.907711,0.027016,0.000148,0.000799,-1530.375244,-910.334411,-2013.926025,-1.15,0.74,0.8
0.100562,-0.368726,-9.912501,0.025551,0.000547,0.000666,-1530.375244,-910.334411,-2013.926025,-1.16,0.74,0.8
0.090984,-0.339994,-9.898135,0.02635,0.000814,-0.000133,-1530.375244,-910.334411,-2013.926025,-1.16,0.74,0.81
0.090984,-0.339994,-9.898135,0.02635,0.000814,-0.000133,-1530.375244,-910.334411,-2013.926025,-1.17,0.75,0.81
0.100562,-0.363937,-9.898135,0.026882,0.001479,-0.000266,-1530.375244,-910.334411,-2013.926025,-1.18,0.75,0.81
0.076618,-0.35436,-9.888557,0.027016,0.000814,0.000533,-1530.375244,-910.334411,-2013.926025,-1.18,0.75,0.81
0.076618,-0.35436,-9.888557,0.027016,0.000814,0.000533,-1530.375244,-910.334411,-2013.926025,-1.19,0.75,0.81
0.067041,-0.359149,-9.907711,0.026882,0.000814,-0.001465,-1530.375244,-910.334411,-2013.926025,-1.19,0.76,0.81
0.090984,-0.359149,-9.917289,0.027948,0.000947,-0.002264,-1529.651367,-910.69635,-2013.926025,-1.2,0.76,0.81
0.090984,-0.363937,-9.917289,0.02848,0.000814,0.000133,-1529.651367,-910.69635,-2013.926025,-1.2,0.76,0.82
0.090984,-0.363937,-9.917289,0.02848,0.000814,0.000133,-1529.651367,-910.69635,-2013.926025,-1.21,0.77,0.82
0.095773,-0.378303,-9.883769,0.027149,0.000947,-0.000133,-1529.651367,-910.69635,-2013.926025,-1.21,0.77,0.82
0.095773,-0.35436,-9.907711,0.027548,0.000148,-0.000399,-1529.651367,-910.69635,-2013.926025,-1.22,0.77,0.82
0.095773,-0.35436,-9.907711,0.027548,0.000148,-0.000399,-1529.651367,-910.69635,-2013.926025,-1.23,0.78,0.82
0.086196,-0.373515,-9.888557,0.026616,0.000281,-0.001465,-1529.651367,-910.69635,-2013.926025,-1.23,0.78,0.82
0.090984,-0.373515,-9.883769,0.026882,0.00068,-0.000533,-1529.651367,-910.69635,-2013.926025,-1.24,0.78,0.82
0.095773,-0.35436,-9.888557,0.028081,0.000148,0.001731,-1529.651367,-910.69635,-2013.926025,-1.24,0.79,0.82
0.095773,-0.35436,-9.888557,0.028081,0.000148,0.001731,-1529.651367,-910.69635,-2013.926025,-1.25,0.79,0.83
0.086196,-0.359149,-9.912501,0.027548,0.000414,0,-1529.108398,-911.963256,-2012.349975,-1.25,0.79,0.83
0.081407,-0.368726,-9.893346,0.027814,-0.000385,0.000799,-1529.108398,-911.963256,-2012.349975,-1.26,0.8,0.83
0.081407,-0.368726,-9.893346,0.027814,-0.000385,0.000799,-1529.108398,-911.963256,-2012.349975,-1.26,0.8,0.83
0.090984,-0.363937,-9.87898,0.027415,0.000547,-0.000266,-1529.108398,-911.963256,-2012.349975,-1.27,0.8,0.83
0.081407,-0.359149,-9.907711,0.026616,0.000547,0.000533,-1529.108398,-911.963256,-2012.349975,-1.27,0.8,0.83
0.081407,-0.359149,-9.907711,0.026616,0.000547,0.000533,-1529.108398,-911.963256,-2012.349975,-1.28,0.81,0.83
0.07183,-0.363937,-9.888557,0.026882,-0.000119,0.000666,-1529.108398,-911.963256,-2012.349975,-1.28,0.81,0.83
0.081407,-0.349571,-9.874192,0.026882,0.000414,0.000266,-1529.108398,-911.963256,-2012.349975,-1.29,0.81,0.84
0.086196,-0.363937,-9.907711,0.027149,0.000547,-0.000399,-1529.470336,-909.429504,-2014.451416,-1.29,0.82,0.84
0.086196,-0.363937,-9.907711,0.027149,0.000547,-0.000399,-1529.470336,-909.429504,-2014.451416,-1.3,0.82,0.84
0.095773,-0.368726,-9.912501,0.026749,0.000015,-0.001065,-1529.470336,-909.429504,-2014.451416,-1.31,0.82,0.84
0.081407,-0.363937,-9.898135,0.025151,-0.000651,-0.001465,-1529.470336,-909.429504,-2014.451416,-1.31,0.83,0.84
0.081407,-0.363937,-9.898135,0.025151,-0.000651,-0.001465,-1529.470336,-909.429504,-2014.451416,-1.32,0.83,0.84
0.100562,-0.368726,-9.883769,0.024885,0.000148,-0.002264,-1529.470336,-909.429504,-2014.451416,-1.32,0.83,0.84
0.090984,-0.373515,-9.888557,0.02595,0.000148,-0.001864,-1529.470336,-909.429504,-2014.451416,-1.33,0.83,0.84
0.086196,-0.368726,-9.898135,0.026483,0.000281,-0.000932,-1529.470336,-909.429504,-2014.451416,-1.33,0.84,0.84
0.086196,-0.368726,-9.898135,0.026483,0.000281,-0.000932,-1529.470336,-909.429504,-2014.451416,-1.34,0.84,0.85
0.095773,-0.363937,-9.922078,0.02595,0.000015,-0.001065,-1529.832397,-910.153442,-2011.999633,-1.34,0.84,0.85
0.090984,-0.363937,-9.898135,0.026882,-0.000252,-0.002264,-1529.832397,-910.153442,-2011.999633,-1.35,0.85,0.85
0.090984,-0.363937,-9.898135,0.026882,-0.000252,-0.002264,-1529.832397,-910.153442,-2011.999633,-1.35,0.85,0.85
0.090984,-0.383092,-9.907711,0.027016,0.001213,-0.00253,-1529.832397,-910.153442,-2011.999633,-1.36,0.85,0.85
0.095773,-0.35436,-9.912501,0.02635,0.000015,-0.00253,-1529.832397,-910.153442,-2011.999633,-1.36,0.86,0.85
0.095773,-0.35436,-9.912501,0.02635,0.000015,-0.00253,-1529.832397,-910.153442,-2011.999633,-1.37,0.86,0.85
0.086196,-0.359149,-9.888557,0.025284,-0.000119,-0.001198,-1529.832397,-910.153442,-2011.999633,-1.37,0.86,0.85
0.095773,-0.363937,-9.898135,0.025817,0.000281,-0.001198,-1529.832397,-910.153442,-2011.999633,-1.38,0.86,0.85
0.086196,-0.368726,-9.893346,0.025817,-0.000252,-0.000799,-1529.832397,-910.153442,-2011.999633,-1.38,0.87,0.85
0.086196,-0.368726,-9.893346,0.025817,-0.000252,-0.000799,-1529.832397,-910.153442,-2011.999633,-1.38,0.87,0.86
0.062252,-0.35436,-9.926867,0.027282,-0.000518,-0.003329,-1530.375244,-910.334411,-2014.276245,-1.39,0.87,0.86
0.067041,-0.363937,-9.893346,0.026616,0.000015,-0.011185,-1530.375244,-910.334411,-2014.276245,-1.39,0.88,0.86
0.067041,-0.363937,-9.893346,0.026616,0.000015,-0.011185,-1530.375244,-910.334411,-2014.276245,-1.4,0.88,0.86
0.129293,-0.349571,-9.902923,0.024352,-0.000252,-0.018509,-1530.375244,-910.334411,-2014.276245,-1.4,0.88,0.86
0.100562,-0.363937,-9.907711,0.024752,-0.000252,-0.007057,-1530.375244,-910.334411,-2014.276245,-1.41,0.88,0.86
0.07183,-0.35436,-9.893346,0.02595,0.000015,-0.006392,-1530.375244,-910.334411,-2014.276245,-1.41,0.89,0.86
0.07183,-0.35436,-9.893346,0.02595,0.000015,-0.006392,-1530.375244,-910.334411,-2014.276245,-1.42,0.89,0.86
-0.009577,-0.38788,-9.912501,0.025018,-0.001317,-0.018509,-1530.375244,-910.334411,-2014.276245,-1.42,0.89,0.86
0.124505,-0.320839,-9.907711,0.025418,-0.002782,-0.047938,-1528.384521,-910.877319,-2014.451416,-1.43,0.9,0.86
0.124505,-0.320839,-9.907711,0.025418,-0.002782,-0.047938,-1528.384521,-910.877319,-2014.451416,-1.43,0.9,0.86
0.07183,-0.378303,-9.936444,0.024352,-0.00145,-0.032225,-1528.384521,-910.877319,-2014.451416,-1.44,0.9,0.86
0.124505,-0.335205,-9.888557,0.025018,-0.003181,-0.044076,-1528.384521,-910.877319,-2014.451416,-1.44,0.9,0.85
0.124505,-0.335205,-9.888557,0.025018,-0.003181,-0.044076,-1528.384521,-910.877319,-2014.451416,-1.45,0.91,0.85
0.07183,-0.368726,-9.902923,0.020757,-0.001184,-0.047538,-1528.384521,-910.877319,-2014.451416,-1.45,0.91,0.85
0.047886,-0.373515,-9.893346,0.023687,-0.001716,-0.048603,-1528.384521,-910.877319,-2014.451416,-1.46,0.91,0.85
0.081407,-0.363937,-9.893346,0.025151,-0.003448,-0.064183,-1528.384521,-910.877319,-2014.451416,-1.46,0.91,0.85
0.081407,-0.363937,-9.893346,0.025151,-0.003448,-0.064183,-1528.384521,-910.877319,-2014.451416,-1.47,0.92,0.84
0.100562,-0.344783,-9.931655,0.027016,-0.003847,-0.076833,-1530.013305,-910.334411,-2013.575805,-1.47,0.92,0.84
0.100562,-0.359149,-9.907711,0.029146,-0.003714,-0.073504,-1530.013305,-910.334411,-2013.575805,-1.47,0.92,0.84
0.100562,-0.359149,-9.907711,0.029146,-0.003714,-0.073504,-1530.013305,-910.334411,-2013.575805,-1.48,0.93,0.83
0.10535,-0.330417,-9.898135,0.027415,-0.000917,-0.046473,-1530.013305,-910.334411,-2013.575805,-1.48,0.93,0.83
0.067041,-0.363937,-9.917289,0.028081,0.000814,-0.016645,-1530.013305,-910.334411,-2013.575805,-1.49,0.93,0.83
-0.028732,-0.363937,-9.874192,0.027814,0.000814,-0.017311,-1530.013305,-910.334411,-2013.575805,-1.49,0.93,0.83
-0.028732,-0.363937,-9.874192,0.027814,0.000814,-0.017311,-1530.013305,-910.334411,-2013.575805,-1.5,0.94,0.83
0.172391,-0.339994,-9.888557,0.026217,-0.001184,-0.058058,-1530.013305,-910.334411,-2013.575805,-1.5,0.94,0.83
0.172391,-0.320839,-9.907711,0.02382,0.00068,-0.052998,-1529.832397,-911.239318,-2014.101196,-1.51,0.94,0.83
0.172391,-0.320839,-9.907711,0.02382,0.00068,-0.052998,-1529.832397,-911.239318,-2014.101196,-1.51,0.95,0.83
0.134082,-0.35436,-9.922078,0.027681,0.00108,-0.019974,-1529.832397,-911.239318,-2014.101196,-1.51,0.95,0.83
0.038309,-0.335205,-9.912501,0.035138,0.003477,0.009987,-1529.832397,-911.239318,-2014.101196,-1.52,0.95,0.83
0.28253,-0.10535,-9.969964,0.047788,0.009469,0.059656,-1529.832397,-911.239318,-2014.101196,-1.52,0.96,0.83
0.28253,-0.10535,-9.969964,0.047788,0.009469,0.059656,-1529.832397,-911.239318,-2014.101196,-1.53,0.96,0.84
0.158025,0.038309,-9.974753,0.057642,0.016926,0.229967,-1529.832397,-911.239318,-2014.101196,-1.53,0.96,0.85
0.067041,-0.090984,-9.931655,0.059107,0.020122,0.313193,-1529.832397,-911.239318,-2014.101196,-1.53,0.97,0.87
0.067041,-0.090984,-9.931655,0.059107,0.020122,0.313193,-1529.832397,-911.239318,-2014.101196,-1.54,0.97,0.89
-0.052675,-0.28253,-9.926867,0.06723,0.023717,0.267119,-1529.832397,-911.239318,-2014.101196,-1.54,0.98,0.9
-0.023943,-0.507597,-9.898135,0.040065,0.011333,0.160591,-1546.482543,-897.122802,-2014.451416,-1.54,0.98,0.91
-0.023943,-0.507597,-9.898135,0.040065,0.011333,0.160591,-1546.482543,-897.122802,-2014.451416,-1.55,0.99,0.92
0.095773,-0.842802,-9.855037,0.027149,0.003477,0.054596,-1546.482543,-897.122802,-2014.451416,-1.55,0.99,0.93
0.229855,-0.799704,-9.859826,0.020757,-0.000651,-0.012251,-1546.482543,-897.122802,-2014.451416,-1.56,0.99,0.93
0.124505,-0.450133,-9.888557,0.008506,-0.003581,-0.024368,-1546.482543,-897.122802,-2014.451416,-1.56,0.99,0.93
0.124505,-0.450133,-9.888557,0.008506,-0.003581,-0.024368,-1546.482543,-897.122802,-2014.451416,-1.56,0.99,0.93
0.07183,-0.407035,-9.87898,0.00025,-0.007709,-0.028629,-1546.482543,-897.122802,-2014.451416,-1.57,1,0.93
0.110139,-0.335205,-9.922078,-0.000682,-0.007043,-0.046073,-1546.482543,-897.122802,-2014.451416,-1.57,1,0.93
0.110139,-0.335205,-9.922078,-0.000682,-0.007043,-0.046073,-1546.482543,-897.122802,-2014.451416,-1.58,1,0.92
-0.100562,-0.411824,-9.912501,0.009572,-0.002915,-0.060854,-1546.663574,-898.389648,-2012.525024,-1.58,1,0.92
0.134082,-0.325628,-9.898135,0.008773,-0.00651,-0.116648,-1546.663574,-898.389648,-2012.525024,-1.59,1,0.92
0.124505,-0.378303,-9.907711,0.016629,-0.005445,-0.08975,-1546.663574,-898.389648,-2012.525024,-1.59,1,0.91
0.124505,-0.378303,-9.907711,0.016629,-0.005445,-0.08975,-1546.663574,-898.389648,-2012.525024,-1.59,1,0.91
0.100562,-0.35436,-9.898135,0.021689,-0.00438,-0.071507,-1546.663574,-898.389648,-2012.525024,-1.6,1.01,0.9
0.114928,-0.316051,-9.917289,0.024619,-0.002782,-0.065914,-1546.663574,-898.389648,-2012.525024,-1.6,1.01,0.9
0.114928,-0.316051,-9.917289,0.024619,-0.002782,-0.065914,-1546.663574,-898.389648,-2012.525024,-1.61,1.01,0.9
0.134082,-0.325628,-9.917289,0.025418,-0.001983,-0.041146,-1546.663574,-898.389648,-2012.525024,-1.61,1.01,0.9
0.10535,-0.368726,-9.926867,0.025418,-0.000917,-0.010786,-1541.777099,-901.10437,-2010.248413,-1.62,1.02,0.9
0.062252,-0.330417,-9.931655,0.024752,-0.001317,-0.023569,-1541.777099,-901.10437,-2010.248413,-1.62,1.02,0.9
0.062252,-0.330417,-9.931655,0.024752,-0.001317,-0.023569,-1541.777099,-901.10437,-2010.248413,-1.62,1.02,0.9
0.095773,-0.368726,-9.931655,0.028081,0.000814,-0.006658,-1541.777099,-901.10437,-2010.248413,-1.63,1.03,0.9
0.019155,-0.38788,-9.893346,0.029279,0.000947,-0.005992,-1541.777099,-901.10437,-2010.248413,-1.63,1.03,0.9
0.019155,-0.38788,-9.893346,0.029279,0.000947,-0.005992,-1541.777099,-901.10437,-2010.248413,-1.64,1.03,0.9
0.134082,-0.373515,-9.912501,0.027149,-0.002649,-0.066846,-1541.777099,-901.10437,-2010.248413,-1.64,1.03,0.89
0.114928,-0.407035,-9.922078,0.02089,-0.005844,-0.098006,-1541.777099,-901.10437,-2010.248413,-1.64,1.04,0.89
0.114928,-0.407035,-9.922078,0.02089,-0.005844,-0.098006,-1541.777099,-901.10437,-2010.248413,-1.65,1.04,0.88
0.019155,-0.407035,-9.907711,0.016096,-0.009307,-0.153134,-1533.270996,-908.886535,-2010.773803,-1.65,1.04,0.88
0.196335,-0.60337,-9.893346,0.016496,-0.008907,-0.167382,-1533.270996,-908.886535,-2010.773803,-1.66,1.04,0.87
0.172391,-0.196335,-9.912501,0.016363,-0.00904,-0.184693,-1533.270996,-908.886535,-2010.773803,-1.66,1.04,0.86
0.172391,-0.196335,-9.912501,0.016363,-0.00904,-0.184693,-1533.270996,-908.886535,-2010.773803,-1.66,1.05,0.85
0.119716,-0.301685,-9.917289,0.023953,-0.006111,-0.117447,-1533.270996,-908.886535,-2010.773803,-1.67,1.05,0.84
0.153237,-0.253798,-9.931655,0.027149,-0.002782,-0.080828,-1533.270996,-908.886535,-2010.773803,-1.67,1.05,0.84
0.153237,-0.253798,-9.931655,0.027149,-0.002782,-0.080828,-1533.270996,-908.886535,-2010.773803,-1.68,1.05,0.84
0.100562,-0.306473,-9.95081,0.031809,0.000947,-0.017843,-1533.270996,-908.886535,-2010.773803,-1.68,1.06,0.84
0.119716,-0.320839,-9.907711,0.037535,0.003077,0.008256,-1533.270996,-908.886535,-2010.773803,-1.68,1.06,0.84
0.095773,-0.277742,-9.960387,0.050718,0.006673,0.053131,-1528.92749,-910.334411,-2011.124023,-1.69,1.06,0.84
0.095773,-0.277742,-9.960387,0.050718,0.006673,0.053131,-1528.92749,-910.334411,-2011.124023,-1.69,1.07,0.84
0.244221,-0.047886,-9.898135,0.057909,0.014795,0.15633,-1528.92749,-910.334411,-2011.124023,-1.69,1.07,0.85
-0.07183,-0.057464,-9.912501,0.050319,0.021853,0.341556,-1528.92749,-910.334411,-2011.124023,-1.7,1.08,0.87
-0.07183,-0.057464,-9.912501,0.050319,0.021853,0.341556,-1528.92749,-910.334411,-2011.124023,-1.7,1.08,0.9
0.114928,0.019155,-9.859826,0.063102,0.022652,0.353673,-1528.92749,-910.334411,-2011.124023,-1.7,1.09,0.92
-0.009577,-0.172391,-9.87898,0.04952,0.017059,0.311994,-1528.92749,-910.334411,-2011.124023,-1.71,1.09,0.93
-0.009577,-0.172391,-9.87898,0.04952,0.017059,0.311994,-1528.92749,-910.334411,-2011.124023,-1.71,1.09,0.95
-0.07183,-0.703931,-9.821516,0.054313,0.009336,0.213056,-1528.92749,-910.334411,-2011.124023,-1.71,1.1,0.97
0.052675,-0.775761,-9.864614,0.043527,0.003876,0.087486,-1545.396728,-899.656555,-2014.101196,-1.72,1.1,0.97
0.10535,-1.106178,-9.874192,0.026217,0.000414,0.006658,-1545.396728,-899.656555,-2014.101196,-1.72,1.1,0.97
0.10535,-1.106178,-9.874192,0.026217,0.000414,0.006658,-1545.396728,-899.656555,-2014.101196,-1.72,1.11,0.97
0.100562,-0.641679,-9.802362,0.008107,-0.003847,-0.033823,-1545.396728,-899.656555,-2014.101196,-1.73,1.11,0.97
-0.004789,-0.60337,-9.826305,-0.021987,-0.008508,-0.054063,-1545.396728,-899.656555,-2014.101196,-1.73,1.11,0.97
-0.004789,-0.60337,-9.826305,-0.021987,-0.008508,-0.054063,-1545.396728,-899.656555,-2014.101196,-1.73,1.11,0.97
-0.095773,-0.402246,-9.907711,-0.023053,-0.007043,-0.098006,-1545.396728,-899.656555,-2014.101196,-1.74,1.11,0.96
0.019155,-0.53154,-9.893346,-0.005209,-0.011837,-0.226505,-1545.396728,-899.656555,-2014.101196,-1.74,1.11,0.95
0.110139,-0.483653,-9.912501,0.006243,-0.019427,-0.338493,-1533.994873,-907.800659,-2011.474365,-1.75,1.11,0.93
0.110139,-0.483653,-9.912501,0.006243,-0.019427,-0.338493,-1533.994873,-907.800659,-2011.474365,-1.75,1.11,0.91
0.167603,-0.349571,-9.893346,0.012634,-0.018628,-0.353806,-1533.994873,-907.800659,-2011.474365,-1.75,1.11,0.9
0.172391,-0.220278,-9.926867,0.01836,-0.014367,-0.275375,-1533.994873,-907.800659,-2011.474365,-1.76,1.11,0.88
0.172391,-0.220278,-9.926867,0.01836,-0.014367,-0.275375,-1533.994873,-907.800659,-2011.474365,-1.76,1.12,0.87
0.153237,-0.292108,-9.907711,0.023953,-0.008774,-0.168048,-1533.994873,-907.800659,-2011.474365,-1.77,1.12,0.86
0.134082,-0.292108,-9.898135,0.028747,-0.003314,-0.079497,-1533.994873,-907.800659,-2011.474365,-1.77,1.12,0.85
0.134082,-0.292108,-9.898135,0.028747,-0.003314,-0.079497,-1533.994873,-907.800659,-2011.474365,-1.77,1.12,0.85
0.10535,-0.359149,-9.898135,0.030744,0.000547,-0.020507,-1533.994873,-907.800659,-2011.474365,-1.78,1.13,0.85
0.119716,-0.368726,-9.902923,0.030744,0.00108,-0.003995,-1533.994873,-907.800659,-2011.474365,-1.78,1.13,0.85
0.086196,-0.359149,-9.926867,0.029812,0.00321,0.002131,-1526.393676,-912.506164,-2010.073364,-1.78,1.13,0.85
0.086196,-0.359149,-9.926867,0.029812,0.00321,0.002131,-1526.393676,-912.506164,-2010.073364,-1.79,1.13,0.85
0.119716,-0.373515,-9.926867,0.029546,0.002678,0.002663,-1526.393676,-912.506164,-2010.073364,-1.79,1.14,0.85
0.10535,-0.373515,-9.898135,0.030478,0.001879,0.003462,-1526.393676,-912.506164,-2010.073364,-1.79,1.14,0.85
0.10535,-0.373515,-9.898135,0.030478,0.001879,0.003462,-1526.393676,-912.506164,-2010.073364,-1.8,1.14,0.85
0.095773,-0.383092,-9.902923,0.030744,0.00108,0.00759,-1526.393676,-912.506164,-2010.073364,-1.8,1.15,0.85
0.114928,-0.378303,-9.888557,0.033274,-0.000651,0.021971,-1526.393676,-912.506164,-2010.073364,-1.81,1.15,0.86
0.225066,-0.344783,-9.907711,0.0386,0.001613,0.033823,-1526.393676,-912.506164,-2010.073364,-1.81,1.15,0.86
0.225066,-0.344783,-9.907711,0.0386,0.001613,0.033823,-1526.393676,-912.506164,-2010.073364,-1.81,1.16,0.86
0.100562,-0.378303,-9.917289,0.040065,0.003876,0.072705,-1529.289428,-912.506164,-2011.124023,-1.82,1.16,0.87
-0.014366,-0.42619,-9.902923,0.037003,0.004942,0.085622,-1529.289428,-912.506164,-2011.124023,-1.82,1.16,0.87
-0.014366,-0.42619,-9.902923,0.037003,0.004942,0.085622,-1529.289428,-912.506164,-2011.124023,-1.82,1.16,0.88
0.067041,-0.421401,-9.859826,0.029546,0.000148,0.029295,-1529.289428,-912.506164,-2011.124023,-1.83,1.17,0.88
0.090984,-0.416612,-9.883769,0.018893,-0.002382,-0.00506,-1529.289428,-912.506164,-2011.124023,-1.83,1.17,0.88
0.090984,-0.416612,-9.883769,0.018893,-0.002382,-0.00506,-1529.289428,-912.506164,-2011.124023,-1.83,1.17,0.88
0.100562,-0.373515,-9.922078,0.013433,-0.005179,-0.01305,-1529.289428,-912.506164,-2011.124023,-1.84,1.17,0.88
0.047886,-0.392669,-9.912501,0.010637,-0.006111,-0.021705,-1529.289428,-912.506164,-2011.124023,-1.84,1.17,0.88
0.009577,-0.488442,-9.917289,0.011436,-0.006377,-0.080828,-1531.099243,-911.058349,-2013.225585,-1.84,1.18,0.88
0.009577,-0.488442,-9.917289,0.011436,-0.006377,-0.080828,-1531.099243,-911.058349,-2013.225585,-1.85,1.18,0.87
0.095773,-0.301685,-9.912501,0.017827,-0.010638,-0.181897,-1531.099243,-911.058349,-2013.225585,-1.85,1.18,0.86
0.143659,-0.287319,-9.917289,0.023553,-0.007842,-0.150471,-1531.099243,-911.058349,-2013.225585,-1.85,1.18,0.86
0.143659,-0.287319,-9.917289,0.023553,-0.007842,-0.150471,-1531.099243,-911.058349,-2013.225585,-1.86,1.18,0.85
0.134082,-0.301685,-9.917289,0.027282,-0.005045,-0.087752,-1531.099243,-911.058349,-2013.225585,-1.86,1.19,0.84
0.119716,-0.339994,-9.917289,0.029013,-0.00185,-0.028363,-1531.099243,-911.058349,-2013.225585,-1.86,1.19,0.84
0.090984,-0.35436,-9.907711,0.031942,0.00108,-0.002796,-1531.099243,-911.058349,-2013.225585,-1.87,1.19,0.84
0.090984,-0.35436,-9.907711,0.031942,0.00108,-0.002796,-1531.099243,-911.058349,-2013.225585,-1.87,1.2,0.84
0.081407,-0.368726,-9.912501,0.031809,0.001613,0.000133,-1529.108398,-910.877319,-2012.349975,-1.87,1.2,0.84
0.095773,-0.373515,-9.902923,0.030877,0.000148,0.000932,-1529.108398,-910.877319,-2012.349975,-1.88,1.2,0.85
0.095773,-0.373515,-9.902923,0.030877,0.000148,0.000932,-1529.108398,-910.877319,-2012.349975,-1.88,1.2,0.85
0.095773,-0.368726,-9.898135,0.029146,-0.000518,0.00253,-1529.108398,-910.877319,-2012.349975,-1.88,1.21,0.85
0.086196,-0.373515,-9.912501,0.028747,-0.000119,0.003063,-1529.108398,-910.877319,-2012.349975,-1.89,1.21,0.85
0.086196,-0.373515,-9.912501,0.028747,-0.000119,0.003063,-1529.108398,-910.877319,-2012.349975,-1.89,1.21,0.85
0.090984,-0.368726,-9.883769,0.028214,-0.000518,0.00253,-1529.108398,-910.877319,-2012.349975,-1.89,1.21,0.85
0.110139,-0.363937,-9.922078,0.027282,-0.000252,0.000799,-1529.108398,-910.877319,-2012.349975,-1.9,1.22,0.85
0.090984,-0.363937,-9.87898,0.027282,-0.001184,0.000799,-1529.108398,-910.877319,-2012.349975,-1.9,1.22,0.85
0.090984,-0.363937,-9.87898,0.027282,-0.001184,0.000799,-1529.108398,-910.877319,-2012.349975,-1.9,1.22,0.85
0.067041,-0.344783,-9.931655,0.024619,-0.000252,0.000799,-1528.746459,-911.239318,-2012.700195,-1.91,1.22,0.85
0.086196,-0.363937,-9.922078,0.025284,0.000015,-0.00253,-1528.746459,-911.239318,-2012.700195,-1.91,1.23,0.85
0.086196,-0.363937,-9.922078,0.025284,0.000015,-0.00253,-1528.746459,-911.239318,-2012.700195,-1.91,1.23,0.85
0.086196,-0.383092,-9.912501,0.025151,0.001213,-0.004661,-1528.746459,-911.239318,-2012.700195,-1.92,1.23,0.85
0.076618,-0.363937,-9.907711,0.025151,0.00068,-0.004661,-1528.746459,-911.239318,-2012.700195,-1.92,1.23,0.85
0.086196,-0.373515,-9.912501,0.026749,-0.000119,-0.003063,-1528.746459,-911.239318,-2012.700195,-1.92,1.24,0.86
0.086196,-0.373515,-9.912501,0.026749,-0.000119,-0.003063,-1528.746459,-911.239318,-2012.700195,-1.93,1.24,0.86
0.095773,-0.378303,-9.898135,0.02595,0.000281,-0.001465,-1528.746459,-911.239318,-2012.700195,-1.93,1.24,0.86
0.081407,-0.35436,-9.926867,0.02595,-0.000385,-0.001731,-1530.194335,-910.877319,-2011.649414,-1.93,1.24,0.86
0.081407,-0.35436,-9.926867,0.02595,-0.000385,-0.001731,-1530.194335,-910.877319,-2011.649414,-1.94,1.25,0.86
0.081407,-0.368726,-9.926867,0.026083,-0.000518,-0.00506,-1530.194335,-910.877319,-2011.649414,-1.94,1.25,0.86
0.100562,-0.368726,-9.907711,0.024086,-0.000784,-0.005326,-1530.194335,-910.877319,-2011.649414,-1.94,1.25,0.86
0.100562,-0.368726,-9.907711,0.024086,-0.000784,-0.005326,-1530.194335,-910.877319,-2011.649414,-1.94,1.25,0.86
0.086196,-0.378303,-9.917289,0.026749,0.000148,-0.000266,-1530.194335,-910.877319,-2011.649414,-1.95,1.25,0.86
0.090984,-0.368726,-9.917289,0.027681,-0.000385,0.002264,-1530.194335,-910.877319,-2011.649414,-1.95,1.26,0.86
0.090984,-0.363937,-9.917289,0.027948,0.000148,0.001731,-1530.194335,-910.877319,-2011.649414,-1.95,1.26,0.86
0.090984,-0.363937,-9.917289,0.027948,0.000148,0.001731,-1530.194335,-910.877319,-2011.649414,-1.96,1.26,0.86
0.086196,-0.35436,-9.931655,0.029546,0.000281,0.001198,-1530.556274,-909.791442,-2011.999633,-1.96,1.26,0.86
0.081407,-0.363937,-9.907711,0.028347,0.000015,0.001065,-1530.556274,-909.791442,-2011.999633,-1.96,1.27,0.86
0.081407,-0.363937,-9.907711,0.028347,0.000015,0.001065,-1530.556274,-909.791442,-2011.999633,-1.97,1.27,0.86
0.07183,-0.378303,-9.926867,0.025817,-0.000119,-0.000399,-1530.556274,-909.791442,-2011.999633,-1.97,1.27,0.86
0.086196,-0.368726,-9.898135,0.024219,0.000414,-0.001332,-1530.556274,-909.791442,-2011.999633,-1.97,1.27,0.87
0.090984,-0.368726,-9.893346,0.025284,0.000148,-0.001731,-1530.556274,-909.791442,-2011.999633,-1.98,1.28,0.87
0.090984,-0.368726,-9.893346,0.025284,0.000148,-0.001731,-1530.556274,-909.791442,-2011.999633,-1.98,1.28,0.87
0.090984,-0.368726,-9.917289,0.026217,0.000414,-0.000533,-1530.556274,-909.791442,-2011.999633,-1.98,1.28,0.87
0.076618,-0.373515,-9.907711,0.027415,0.000547,-0.000666,-1530.556274,-909.791442,-2011.999633,-1.98,1.28,0.87
0.076618,-0.373515,-9.907711,0.027415,0.000547,-0.000666,-1530.556274,-909.791442,-2011.999633,-1.99,1.29,0.87
0.086196,-0.373515,-9.926867,0.027548,0.001613,-0.001864,-1530.013305,-911.058349,-2012.174804,-1.99,1.29,0.87
0.076618,-0.378303,-9.902923,0.027282,0.000547,-0.000666,-1530.013305,-911.058349,-2012.174804,-1.99,1.29,0.87
0.076618,-0.378303,-9.902923,0.027282,0.000547,-0.000666,-1530.013305,-911.058349,-2012.174804,-2,1.29,0.87
0.095773,-0.378303,-9.87898,0.027149,0.000281,-0.002131,-1530.013305,-911.058349,-2012.174804,-2,1.3,0.87
0.090984,-0.368726,-9.898135,0.026882,0.000547,-0.002663,-1530.013305,-911.058349,-2012.174804,-2,1.3,0.87
0.086196,-0.359149,-9.902923,0.025551,0.000015,-0.002264,-1530.013305,-911.058349,-2012.174804,-2,1.3,0.87
0.086196,-0.359149,-9.902923,0.025551,0.000015,-0.002264,-1530.013305,-911.058349,-2012.174804,-2.01,1.3,0.87
0.086196,-0.35436,-9.893346,0.027016,0.000015,-0.002264,-1530.013305,-911.058349,-2012.174804,-2.01,1.31,0.87
0.067041,-0.359149,-9.926867,0.027548,-0.000784,-0.001465,-1530.194335,-910.51538,-2012.349975,-2.01,1.31,0.87
0.067041,-0.359149,-9.926867,0.027548,-0.000784,-0.001465,-1530.194335,-910.51538,-2012.349975,-2.02,1.31,0.87
0.067041,-0.368726,-9.926867,0.027548,0.000148,0.000399,-1530.194335,-910.51538,-2012.349975,-2.02,1.31,0.87
0.076618,-0.368726,-9.869402,0.028081,-0.000385,-0.000666,-1530.194335,-910.51538,-2012.349975,-2.02,1.31,0.88
0.076618,-0.359149,-9.907711,0.027948,0.00068,-0.000932,-1530.194335,-910.51538,-2012.349975,-2.02,1.32,0.88
0.076618,-0.359149,-9.907711,0.027948,0.00068,-0.000932,-1530.194335,-910.51538,-2012.349975,-2.03,1.32,0.88
0.090984,-0.368726,-9.888557,0.027282,0.001613,-0.001065,-1530.194335,-910.51538,-2012.349975,-2.03,1.32,0.88
0.090984,-0.359149,-9.898135,0.02635,0.000814,-0.000666,-1530.194335,-910.51538,-2012.349975,-2.03,1.32,0.88
0.090984,-0.359149,-9.898135,0.02635,0.000814,-0.000666,-1530.194335,-910.51538,-2012.349975,-2.04,1.33,0.88
0.090984,-0.368726,-9.946022,0.027149,0.000547,-0.000533,-1528.565429,-909.610473,-2012.174804,-2.04,1.33,0.88
0.100562,-0.359149,-9.907711,0.028081,-0.000119,0.001731,-1528.565429,-909.610473,-2012.174804,-2.04,1.33,0.88
0.100562,-0.359149,-9.907711,0.028081,-0.000119,0.001731,-1528.565429,-909.610473,-2012.174804,-2.04,1.33,0.88
0.086196,-0.363937,-9.907711,0.034739,-0.001317,0.014514,-1528.565429,-909.610473,-2012.174804,-2.05,1.34,0.88
0.081407,-0.373515,-9.893346,0.031143,0.000148,0.007324,-1528.565429,-909.610473,-2012.174804,-2.05,1.34,0.88
0.095773,-0.383092,-9.912501,0.027415,0.000148,-0.001465,-1528.565429,-909.610473,-2012.174804,-2.05,1.34,0.88
0.095773,-0.383092,-9.912501,0.027415,0.000148,-0.001465,-1528.565429,-909.610473,-2012.174804,-2.06,1.34,0.88
0.090984,-0.38788,-9.902923,0.024485,0.000015,-0.004128,-1528.565429,-909.610473,-2012.174804,-2.06,1.35,0.88
0.095773,-0.35436,-9.941232,0.024485,-0.000784,-0.002663,-1531.82312,-909.610473,-2012.875366,-2.06,1.35,0.88
0.095773,-0.35436,-9.941232,0.024485,-0.000784,-0.002663,-1531.82312,-909.610473,-2012.875366,-2.06,1.35,0.88
0.095773,-0.363937,-9.931655,0.025684,-0.001317,-0.001997,-1531.82312,-909.610473,-2012.875366,-2.07,1.35,0.89
0.07183,-0.363937,-9.912501,0.026483,-0.000651,-0.002397,-1531.82312,-909.610473,-2012.875366,-2.07,1.36,0.89
0.076618,-0.363937,-9.893346,0.027948,-0.001317,-0.003728,-1531.82312,-909.610473,-2012.875366,-2.07,1.36,0.89
0.076618,-0.363937,-9.893346,0.027948,-0.001317,-0.003728,-1531.82312,-909.610473,-2012.875366,-2.08,1.36,0.89
0.090984,-0.368726,-9.912501,0.027415,-0.000518,-0.004794,-1531.82312,-909.610473,-2012.875366,-2.08,1.36,0.89
0.086196,-0.368726,-9.917289,0.027415,-0.000252,-0.002796,-1531.82312,-909.610473,-2012.875366,-2.08,1.37,0.89
0.086196,-0.368726,-9.917289,0.027415,-0.000252,-0.002796,-1531.82312,-909.610473,-2012.875366,-2.08,1.37,0.89
0.090984,-0.38788,-9.883769,0.027548,-0.001317,-0.003063,-1531.82312,-909.610473,-2012.875366,-2.09,1.37,0.89
0.086196,-0.373515,-9.931655,0.026217,-0.000119,-0.004527,-1531.280151,-910.153442,-2013.050415,-2.09,1.37,0.89
0.100562,-0.38788,-9.936444,0.025684,-0.000784,-0.00293,-1531.280151,-910.153442,-2013.050415,-2.09,1.37,0.89
0.100562,-0.38788,-9.936444,0.025684,-0.000784,-0.00293,-1531.280151,-910.153442,-2013.050415,-2.1,1.38,0.89
0.100562,-0.368726,-9.883769,0.024752,-0.000784,-0.002397,-1531.280151,-910.153442,-2013.050415,-2.1,1.38,0.89
0.090984,-0.373515,-9.912501,0.02635,-0.000784,-0.001065,-1531.280151,-910.153442,-2013.050415,-2.1,1.38,0.89
0.090984,-0.373515,-9.912501,0.02635,-0.000784,-0.001065,-1531.280151,-910.153442,-2013.050415,-2.1,1.38,0.89
0.090984,-0.378303,-9.922078,0.027016,-0.000385,-0.001198,-1531.280151,-910.153442,-2013.050415,-2.11,1.39,0.89
0.090984,-0.373515,-9.893346,0.025284,0.000148,-0.002264,-1531.280151,-910.153442,-2013.050415,-2.11,1.39,0.89
0.090984,-0.373515,-9.893346,0.025284,0.000148,-0.002264,-1531.280151,-910.153442,-2013.050415,-2.11,1.39,0.89
0.110139,-0.368726,-9.922078,0.025684,-0.000518,-0.002264,-1531.280151,-911.601257,-2011.999633,-2.11,1.39,0.89
0.100562,-0.368726,-9.912501,0.026882,-0.000385,-0.000932,-1531.280151,-911.601257,-2011.999633,-2.12,1.39,0.89
0.095773,-0.368726,-9.912501,0.026083,-0.000518,-0.000533,-1531.280151,-911.601257,-2011.999633,-2.12,1.4,0.89
0.095773,-0.368726,-9.912501,0.026083,-0.000518,-0.000533,-1531.280151,-911.601257,-2011.999633,-2.12,1.4,0.89
0.095773,-0.38788,-9.926867,0.027282,0.000148,-0.001731,-1531.280151,-911.601257,-2011.999633,-2.13,1.4,0.89
0.100562,-0.373515,-9.898135,0.027948,0.000281,-0.001864,-1531.280151,-911.601257,-2011.999633,-2.13,1.4,0.9
0.100562,-0.373515,-9.898135,0.027948,0.000281,-0.001864,-1531.280151,-911.601257,-2011.999633,-2.13,1.41,0.9
0.095773,-0.378303,-9.912501,0.026217,0.000015,-0.001997,-1531.280151,-911.601257,-2011.999633,-2.13,1.41,0.9
0.095773,-0.378303,-9.917289,0.024485,-0.001317,-0.001332,-1532.909057,-910.69635,-2014.276245,-2.14,1.41,0.9
0.086196,-0.378303,-9.922078,0.025018,-0.000385,-0.000932,-1532.909057,-910.69635,-2014.276245,-2.14,1.41,0.9
0.086196,-0.378303,-9.922078,0.025018,-0.000385,-0.000932,-1532.909057,-910.69635,-2014.276245,-2.14,1.42,0.9
0.081407,-0.363937,-9.893346,0.02595,-0.000651,-0.00253,-1532.909057,-910.69635,-2014.276245,-2.14,1.42,0.9
0.095773,-0.383092,-9.888557,0.026616,0.000015,-0.001731,-1532.909057,-910.69635,-2014.276245,-2.15,1.42,0.9
0.095773,-0.383092,-9.888557,0.026616,0.000015,-0.001731,-1532.909057,-910.69635,-2014.276245,-2.15,1.42,0.9
0.076618,-0.35436,-9.912501,0.025684,-0.000385,-0.000533,-1532.909057,-910.69635,-2014.276245,-2.15,1.42,0.9
0.095773,-0.38788,-9.869402,0.026217,0.000148,-0.000666,-1532.909057,-910.69635,-2014.276245,-2.15,1.43,0.9
0.095773,-0.38788,-9.869402,0.026217,0.000148,-0.000666,-1532.909057,-910.69635,-2014.276245,-2.16,1.43,0.9
0.07183,-0.373515,-9.907711,0.025551,-0.000784,-0.000533,-1530.013305,-910.69635,-2012.525024,-2.16,1.43,0.9
0.086196,-0.368726,-9.926867,0.026083,0.000148,-0.001198,-1530.013305,-910.69635,-2012.525024,-2.16,1.43,0.9
0.090984,-0.378303,-9.883769,0.027415,0.000814,-0.002264,-1530.013305,-910.69635,-2012.525024,-2.16,1.44,0.9
0.090984,-0.378303,-9.883769,0.027415,0.000814,-0.002264,-1530.013305,-910.69635,-2012.525024,-2.17,1.44,0.9
0.081407,-0.373515,-9.902923,0.027415,0.000414,-0.003196,-1530.013305,-910.69635,-2012.525024,-2.17,1.44,0.9
0.086196,-0.38788,-9.912501,0.026217,-0.000518,-0.002663,-1530.013305,-910.69635,-2012.525024,-2.17,1.44,0.9
0.086196,-0.38788,-9.912501,0.026217,-0.000518,-0.002663,-1530.013305,-910.69635,-2012.525024,-2.17,1.44,0.9
0.095773,-0.368726,-9.917289,0.025018,-0.000784,-0.000666,-1530.013305,-910.69635,-2012.525024,-2.18,1.45,0.9
0.100562,-0.378303,-9.898135,0.025284,-0.000518,-0.000533,-1530.013305,-910.69635,-2012.525024,-2.18,1.45,0.9
0.090984,-0.368726,-9.922078,0.02595,-0.001583,-0.001598,-1531.280151,-909.791442,-2013.750976,-2.18,1.45,0.91
0.090984,-0.368726,-9.922078,0.02595,-0.001583,-0.001598,-1531.280151,-909.791442,-2013.750976,-2.19,1.45,0.91
0.076618,-0.363937,-9.907711,0.026217,-0.000784,-0.002131,-1531.280151,-909.791442,-2013.750976,-2.19,1.46,0.91
0.095773,-0.383092,-9.883769,0.026483,-0.000385,-0.001864,-1531.280151,-909.791442,-2013.750976,-2.19,1.46,0.91
0.095773,-0.383092,-9.883769,0.026483,-0.000385,-0.001864,-1531.280151,-909.791442,-2013.750976,-2.19,1.46,0.91
0.090984,-0.378303,-9.888557,0.027415,-0.000784,-0.001198,-1531.280151,-909.791442,-2013.750976,-2.2,1.46,0.91
0.095773,-0.378303,-9.898135,0.026217,-0.000518,0.000533,-1531.280151,-909.791442,-2013.750976,-2.2,1.46,0.91
0.095773,-0.378303,-9.898135,0.026217,-0.000518,0.000533,-1531.280151,-909.791442,-2013.750976,-2.2,1.47,0.91
0.07183,-0.363937,-9.912501,0.025817,-0.000385,-0.001198,-1531.280151,-909.791442,-2013.750976,-2.2,1.47,0.91
0.081407,-0.368726,-9.917289,0.025151,0.000015,-0.003862,-1530.556274,-909.791442,-2013.750976,-2.21,1.47,0.91
0.076618,-0.383092,-9.893346,0.025551,-0.000385,-0.003462,-1530.556274,-909.791442,-2013.750976,-2.21,1.47,0.91
0.076618,-0.383092,-9.893346,0.025551,-0.000385,-0.003462,-1530.556274,-909.791442,-2013.750976,-2.21,1.48,0.91
0.081407,-0.363937,-9.912501,0.026749,-0.000784,-0.000666,-1530.556274,-909.791442,-2013.750976,-2.21,1.48,0.91
0.090984,-0.392669,-9.87898,0.027149,-0.000119,-0.000666,-1530.556274,-909.791442,-2013.750976,-2.22,1.48,0.91
0.090984,-0.392669,-9.87898,0.027149,-0.000119,-0.000666,-1530.556274,-909.791442,-2013.750976,-2.22,1.48,0.91
0.081407,-0.363937,-9.922078,0.028347,-0.000119,-0.003196,-1530.556274,-909.791442,-2013.750976,-2.22,1.48,0.91
0.095773,-0.402246,-9.883769,0.029679,0.000414,-0.003595,-1530.556274,-909.791442,-2013.750976,-2.22,1.49,0.91
0.10535,-0.378303,-9.926867,0.027282,-0.000518,-0.000799,-1530.918212,-908.705566,-2013.400634,-2.23,1.49,0.91
0.10535,-0.378303,-9.926867,0.027282,-0.000518,-0.000799,-1530.918212,-908.705566,-2013.400634,-2.23,1.49,0.91
0.095773,-0.373515,-9.912501,0.025151,-0.001184,-0.001332,-1530.918212,-908.705566,-2013.400634,-2.23,1.49,0.91
0.086196,-0.373515,-9.922078,0.02342,-0.000252,-0.003462,-1530.918212,-908.705566,-2013.400634,-2.23,1.5,0.91
0.086196,-0.373515,-9.922078,0.02342,-0.000252,-0.003462,-1530.918212,-908.705566,-2013.400634,-2.24,1.5,0.91
0.095773,-0.373515,-9.893346,0.024619,-0.000252,-0.003595,-1530.918212,-908.705566,-2013.400634,-2.24,1.5,0.91
0.10535,-0.383092,-9.922078,0.026616,0.000015,-0.000666,-1530.918212,-908.705566,-2013.400634,-2.24,1.5,0.92
0.10535,-0.383092,-9.922078,0.026616,0.000015,-0.000666,-1530.918212,-908.705566,-2013.400634,-2.24,1.5,0.92
0.090984,-0.368726,-9.912501,0.028214,0.000414,0.001332,-1530.918212,-908.705566,-2013.400634,-2.25,1.51,0.92
0.095773,-0.359149,-9.893346,0.030877,0.000414,0.000533,-1530.918212,-908.705566,-2013.400634,-2.25,1.51,0.92
0.090984,-0.397458,-9.931655,0.031543,0.000148,-0.002397,-1531.642211,-909.067565,-2013.750976,-2.25,1.51,0.92
0.090984,-0.397458,-9.931655,0.031543,0.000148,-0.002397,-1531.642211,-909.067565,-2013.750976,-2.25,1.51,0.92
0.095773,-0.383092,-9.912501,0.027016,-0.000518,-0.002264,-1531.642211,-909.067565,-2013.750976,-2.25,1.52,0.92
0.076618,-0.359149,-9.917289,0.022621,-0.000385,-0.001598,-1531.642211,-909.067565,-2013.750976,-2.26,1.52,0.92
0.076618,-0.359149,-9.917289,0.022621,-0.000385,-0.001598,-1531.642211,-909.067565,-2013.750976,-2.26,1.52,0.92
0.081407,-0.363937,-9.898135,0.02382,0.000148,-0.001465,-1531.642211,-909.067565,-2013.750976,-2.26,1.52,0.92
0.090984,-0.359149,-9.902923,0.027681,-0.000651,-0.00253,-1531.642211,-909.067565,-2013.750976,-2.26,1.52,0.92
0.090984,-0.363937,-9.917289,0.027149,-0.000518,-0.000799,-1531.642211,-909.067565,-2013.750976,-2.27,1.53,0.92
0.090984,-0.363937,-9.917289,0.027149,-0.000518,-0.000799,-1531.642211,-909.067565,-2013.750976,-2.27,1.53,0.92
0.081407,-0.363937,-9.931655,0.02635,0.000148,0.001198,-1532.00415,-910.877319,-2013.750976,-2.27,1.53,0.92
0.090984,-0.373515,-9.912501,0.025418,0.000148,0.000133,-1532.00415,-910.877319,-2013.750976,-2.27,1.53,0.92
0.090984,-0.373515,-9.912501,0.025418,0.000148,0.000133,-1532.00415,-910.877319,-2013.750976,-2.28,1.54,0.92
0.081407,-0.368726,-9.912501,0.024219,-0.000518,-0.002397,-1532.00415,-910.877319,-2013.750976,-2.28,1.54,0.92
0.095773,-0.373515,-9.898135,0.024219,-0.000252,-0.003196,-1532.00415,-910.877319,-2013.750976,-2.28,1.54,0.92
0.095773,-0.373515,-9.898135,0.024219,-0.000252,-0.003196,-1532.00415,-910.877319,-2013.750976,-2.28,1.54,0.92
0.076618,-0.368726,-9.893346,0.024885,-0.000518,-0.002264,-1532.00415,-910.877319,-2013.750976,-2.29,1.54,0.92
0.086196,-0.378303,-9.922078,0.024619,0.000015,-0.001465,-1532.00415,-910.877319,-2013.750976,-2.29,1.55,0.92
0.081407,-0.378303,-9.926867,0.026217,0.000148,-0.002663,-1532.00415,-910.877319,-2013.750976,-2.29,1.55,0.92
0.081407,-0.378303,-9.926867,0.026217,0.000148,-0.002663,-1532.00415,-910.877319,-2013.750976,-2.29,1.55,0.92
0.086196,-0.363937,-9.922078,0.025151,-0.000252,-0.002663,-1532.00415,-910.877319,-2013.750976,-2.29,1.55,0.92
0.086196,-0.363937,-9.926867,0.025418,-0.000119,-0.003462,-1532.00415,-910.877319,-2013.750976,-2.3,1.55,0.93
0.086196,-0.363937,-9.926867,0.025418,-0.000119,-0.003462,-1532.00415,-910.877319,-2013.750976,-2.3,1.56,0.93
0.095773,-0.373515,-9.917289,0.025018,-0.000651,-0.001332,-1532.00415,-910.877319,-2013.750976,-2.3,1.56,0.93
0.100562,-0.373515,-9.912501,0.025418,-0.001184,-0.000133,-1532.00415,-910.877319,-2013.750976,-2.3,1.56,0.93
0.086196,-0.373515,-9.912501,0.027016,-0.000917,-0.001731,-1532.00415,-910.877319,-2013.750976,-2.31,1.56,0.93
0.086196,-0.373515,-9.912501,0.027016,-0.000917,-0.001731,-1532.00415,-910.877319,-2013.750976,-2.31,1.57,0.93
0.10535,-0.378303,-9.907711,0.028214,0.000015,-0.00253,-1531.280151,-911.239318,-2014.451416,-2.31,1.57,0.93
0.081407,-0.378303,-9.926867,0.029279,0.00068,-0.002264,-1531.280151,-911.239318,-2014.451416,-2.31,1.57,0.93
0.081407,-0.378303,-9.926867,0.029279,0.00068,-0.002264,-1531.280151,-911.239318,-2014.451416,-2.32,1.57,0.93
0.10535,-0.363937,-9.907711,0.029812,0.002012,-0.000533,-1531.280151,-911.239318,-2014.451416,-2.32,1.58,0.93
0.076618,-0.335205,-9.917289,0.031809,0.001346,0.000266,-1531.280151,-911.239318,-2014.451416,-2.32,1.58,0.93
0.076618,-0.335205,-9.917289,0.031809,0.001346,0.000266,-1531.280151,-911.239318,-2014.451416,-2.32,1.58,0.93
0.090984,-0.339994,-9.941232,0.039799,0.003876,0.01012,-1531.280151,-911.239318,-2014.451416,-2.32,1.58,0.93
0.445344,-0.225066,-9.802362,0.05964,0.011866,0.036885,-1531.280151,-911.239318,-2014.451416,-2.33,1.59,0.93
-0.076618,-0.052675,-9.922078,0.046324,0.012532,0.159659,-1531.280151,-911.239318,-2014.451416,-2.33,1.59,0.94
-0.076618,-0.052675,-9.922078,0.046324,0.012532,0.159659,-1531.280151,-911.239318,-2014.451416,-2.33,1.59,0.95
0.07183,-0.244221,-9.922078,0.058308,0.015594,0.249409,-1532.185058,-910.69635,-2013.225585,-2.33,1.6,0.97
-0.110139,-0.086196,-10.037006,0.058574,0.008271,0.160724,-1532.185058,-910.69635,-2013.225585,-2.33,1.6,0.98
-0.110139,-0.086196,-10.037006,0.058574,0.008271,0.160724,-1532.185058,-910.69635,-2013.225585,-2.34,1.61,0.99
0.014366,-0.483653,-9.888557,0.052582,0.005075,0.085089,-1532.185058,-910.69635,-2013.225585,-2.34,1.61,0.99
0.023943,-0.967307,-9.874192,0.034206,0.00068,0.014115,-1532.185058,-910.69635,-2013.225585,-2.34,1.61,0.99
0.167603,-0.938575,-9.835883,0.022621,-0.003181,-0.053131,-1532.185058,-910.69635,-2013.225585,-2.34,1.61,0.99
0.167603,-0.938575,-9.835883,0.022621,-0.003181,-0.053131,-1532.185058,-910.69635,-2013.225585,-2.34,1.62,0.99
0.162814,-0.474076,-9.907711,0.005444,-0.004113,-0.051,-1532.185058,-910.69635,-2013.225585,-2.35,1.62,0.99
0.07183,-0.507597,-9.855037,-0.011201,-0.011437,-0.05606,-1544.672851,-899.294555,-2011.999633,-2.35,1.62,0.98
0.07183,-0.507597,-9.855037,-0.011201,-0.011437,-0.05606,-1544.672851,-899.294555,-2011.999633,-2.35,1.62,0.98
0.023943,-0.344783,-9.946022,-0.014264,-0.015032,-0.08722,-1544.672851,-899.294555,-2011.999633,-2.35,1.62,0.98
0.129293,-0.349571,-9.95081,0.008373,-0.009307,-0.113985,-1544.672851,-899.294555,-2011.999633,-2.36,1.62,0.97
0.129293,-0.349571,-9.95081,0.008373,-0.009307,-0.113985,-1544.672851,-899.294555,-2011.999633,-2.36,1.62,0.96
0.076618,-0.373515,-9.907711,0.012235,-0.008508,-0.119844,-1544.672851,-899.294555,-2011.999633,-2.36,1.62,0.96
0.110139,-0.373515,-9.917289,0.017561,-0.008774,-0.134092,-1544.672851,-899.294555,-2011.999633,-2.36,1.62,0.95
0.124505,-0.363937,-9.907711,0.02129,-0.00691,-0.102666,-1544.672851,-899.294555,-2011.999633,-2.37,1.62,0.94
0.124505,-0.363937,-9.907711,0.02129,-0.00691,-0.102666,-1544.672851,-899.294555,-2011.999633,-2.37,1.63,0.94
0.090984,-0.373515,-9.936444,0.024219,-0.004246,-0.074969,-1540.510253,-900.561462,-2010.073364,-2.37,1.63,0.94
0.081407,-0.373515,-9.931655,0.025151,-0.004779,-0.071241,-1540.510253,-900.561462,-2010.073364,-2.37,1.63,0.93
0.081407,-0.373515,-9.931655,0.025151,-0.004779,-0.071241,-1540.510253,-900.561462,-2010.073364,-2.38,1.63,0.93
0.043098,-0.253798,-9.931655,0.021689,-0.005578,-0.083625,-1540.510253,-900.561462,-2010.073364,-2.38,1.63,0.92
0.110139,-0.344783,-9.902923,0.02382,-0.002382,-0.044875,-1540.510253,-900.561462,-2010.073364,-2.38,1.64,0.92
0.086196,-0.359149,-9.912501,0.025418,-0.000385,-0.013183,-1540.510253,-900.561462,-2010.073364,-2.38,1.64,0.92
0.086196,-0.359149,-9.912501,0.025418,-0.000385,-0.013183,-1540.510253,-900.561462,-2010.073364,-2.39,1.64,0.92
0.090984,-0.363937,-9.898135,0.027149,0.000015,-0.00253,-1540.510253,-900.561462,-2010.073364,-2.39,1.64,0.92
0.076618,-0.373515,-9.883769,0.028214,0.001346,0.001864,-1540.510253,-900.561462,-2010.073364,-2.39,1.64,0.92
0.076618,-0.373515,-9.883769,0.028214,0.001346,0.001864,-1540.510253,-900.561462,-2010.073364,-2.39,1.65,0.92
0.081407,-0.363937,-9.926867,0.028081,0.002012,0.002663,-1535.623779,-906.895751,-2010.598754,-2.39,1.65,0.92
0.081407,-0.373515,-9.902923,0.030078,0.000281,0.004527,-1535.623779,-906.895751,-2010.598754,-2.4,1.65,0.92
0.081407,-0.373515,-9.902923,0.030078,0.000281,0.004527,-1535.623779,-906.895751,-2010.598754,-2.4,1.65,0.92
0.07183,-0.359149,-9.902923,0.030345,0.001746,0.00293,-1535.623779,-906.895751,-2010.598754,-2.4,1.66,0.93
0.081407,-0.373515,-9.917289,0.031809,0.002545,0.001997,-1535.623779,-906.895751,-2010.598754,-2.4,1.66,0.93
0.100562,-0.363937,-9.907711,0.032741,0.002278,0.002131,-1535.623779,-906.895751,-2010.598754,-2.4,1.66,0.93
0.100562,-0.363937,-9.907711,0.032741,0.002278,0.002131,-1535.623779,-906.895751,-2010.598754,-2.41,1.66,0.93
0.114928,-0.392669,-9.912501,0.039799,0.005075,0.014648,-1535.623779,-906.895751,-2010.598754,-2.41,1.67,0.93
0.301685,-0.225066,-9.926867,0.048854,0.008803,0.047538,-1534.718872,-905.628906,-2011.124023,-2.41,1.67,0.93
0.301685,-0.225066,-9.926867,0.048854,0.008803,0.047538,-1534.718872,-905.628906,-2011.124023,-2.41,1.67,0.93
0.023943,-0.320839,-9.912501,0.043527,0.010002,0.1028,-1534.718872,-905.628906,-2011.124023,-2.41,1.68,0.94
0.028732,-0.330417,-9.931655,0.038201,0.006673,0.089084,-1534.718872,-905.628906,-2011.124023,-2.42,1.68,0.95
0.086196,-0.617735,-9.888557,0.030744,0.003477,0.056593,-1534.718872,-905.628906,-2011.124023,-2.42,1.68,0.95
0.086196,-0.617735,-9.888557,0.030744,0.003477,0.056593,-1534.718872,-905.628906,-2011.124023,-2.42,1.68,0.95
0.057464,-0.478865,-9.893346,0.022754,-0.000917,0.023037,-1534.718872,-905.628906,-2011.124023,-2.42,1.69,0.96
0.062252,-0.411824,-9.87898,0.012235,-0.00398,-0.003196,-1534.718872,-905.628906,-2011.124023,-2.42,1.69,0.96
0.062252,-0.411824,-9.87898,0.012235,-0.00398,-0.003196,-1534.718872,-905.628906,-2011.124023,-2.43,1.69,0.96
0.057464,-0.378303,-9.926867,0.00318,-0.009573,-0.026499,-1537.071533,-905.085937,-2011.299194,-2.43,1.69,0.95
0.067041,-0.378303,-9.946022,0.00824,-0.008774,-0.038483,-1537.071533,-905.085937,-2011.299194,-2.43,1.69,0.95
0.067041,-0.378303,-9.946022,0.00824,-0.008774,-0.038483,-1537.071533,-905.085937,-2011.299194,-2.43,1.69,0.95
0.028732,-0.440556,-9.912501,0.013966,-0.008241,-0.105995,-1537.071533,-905.085937,-2011.299194,-2.44,1.69,0.95
0.067041,-0.450133,-9.893346,0.020224,-0.010239,-0.186424,-1537.071533,-905.085937,-2011.299194,-2.44,1.69,0.94
0.114928,-0.368726,-9.907711,0.022488,-0.007575,-0.163521,-1537.071533,-905.085937,-2011.299194,-2.44,1.7,0.93
0.114928,-0.368726,-9.907711,0.022488,-0.007575,-0.163521,-1537.071533,-905.085937,-2011.299194,-2.44,1.7,0.92
0.129293,-0.316051,-9.917289,0.02382,-0.007043,-0.120377,-1537.071533,-905.085937,-2011.299194,-2.45,1.7,0.91
0.114928,-0.330417,-9.902923,0.025018,-0.004113,-0.060721,-1534.718872,-905.628906,-2010.423583,-2.45,1.7,0.91
0.114928,-0.330417,-9.902923,0.025018,-0.004113,-0.060721,-1534.718872,-905.628906,-2010.423583,-2.45,1.7,0.91
0.095773,-0.359149,-9.898135,0.027681,-0.001184,-0.01811,-1534.718872,-905.628906,-2010.423583,-2.45,1.71,0.9
0.086196,-0.378303,-9.912501,0.029412,0.001213,-0.000399,-1534.718872,-905.628906,-2010.423583,-2.45,1.71,0.9
0.081407,-0.373515,-9.898135,0.030078,0.002545,0.001864,-1534.718872,-905.628906,-2010.423583,-2.46,1.71,0.91
0.081407,-0.373515,-9.898135,0.030078,0.002545,0.001864,-1534.718872,-905.628906,-2010.423583,-2.46,1.71,0.91
0.076618,-0.378303,-9.912501,0.029812,0.001746,0.001731,-1534.718872,-905.628906,-2010.423583,-2.46,1.71,0.91
0.081407,-0.392669,-9.902923,0.030877,0.001213,0.002264,-1534.718872,-905.628906,-2010.423583,-2.46,1.72,0.91
0.081407,-0.392669,-9.902923,0.030877,0.001213,0.002264,-1534.718872,-905.628906,-2010.423583,-2.46,1.72,0.91
0.086196,-0.378303,-9.917289,0.030078,0.001746,0.003862,-1534.718872,-905.628906,-2010.423583,-2.47,1.72,0.91
0.10535,-0.35436,-9.936444,0.03101,0.003477,0.006259,-1536.166748,-905.990844,-2010.423583,-2.47,1.72,0.91
0.10535,-0.35436,-9.936444,0.03101,0.003477,0.006259,-1536.166748,-905.990844,-2010.423583,-2.47,1.73,0.91
0.124505,-0.359149,-9.931655,0.038201,0.005607,0.014248,-1536.166748,-905.990844,-2010.423583,-2.47,1.73,0.91
0.225066,-0.311262,-9.898135,0.044859,0.00867,0.032624,-1536.166748,-905.990844,-2010.423583,-2.47,1.73,0.91
0.095773,-0.373515,-9.883769,0.038068,0.00654,0.073371,-1536.166748,-905.990844,-2010.423583,-2.47,1.74,0.92
0.095773,-0.373515,-9.883769,0.038068,0.00654,0.073371,-1536.166748,-905.990844,-2010.423583,-2.48,1.74,0.92
0.004789,-0.469287,-9.874192,0.029412,0.004276,0.056726,-1536.166748,-905.990844,-2010.423583,-2.48,1.74,0.93
0.076618,-0.402246,-9.907711,0.02382,0.001213,0.011319,-1536.166748,-905.990844,-2010.423583,-2.48,1.74,0.93
0.076618,-0.402246,-9.907711,0.02382,0.001213,0.011319,-1536.166748,-905.990844,-2010.423583,-2.48,1.74,0.93
0.090984,-0.392669,-9.922078,0.018094,-0.00145,-0.003595,-1536.528686,-905.628906,-2011.124023,-2.48,1.75,0.93
0.095773,-0.363937,-9.917289,0.015297,-0.003448,-0.007457,-1536.528686,-905.628906,-2011.124023,-2.49,1.75,0.93
0.090984,-0.392669,-9.87898,0.017561,-0.003048,-0.006125,-1536.528686,-905.628906,-2011.124023,-2.49,1.75,0.93
0.090984,-0.392669,-9.87898,0.017561,-0.003048,-0.006125,-1536.528686,-905.628906,-2011.124023,-2.49,1.75,0.93
0.086196,-0.38788,-9.893346,0.019159,-0.002382,-0.006924,-1536.528686,-905.628906,-2011.124023,-2.49,1.75,0.93
0.095773,-0.368726,-9.912501,0.020358,-0.002515,-0.01012,-1536.528686,-905.628906,-2011.124023,-2.49,1.75,0.93
0.095773,-0.368726,-9.912501,0.020358,-0.002515,-0.01012,-1536.528686,-905.628906,-2011.124023,-2.5,1.76,0.93
0.07183,-0.378303,-9.907711,0.022089,-0.002249,-0.010919,-1536.528686,-905.628906,-2011.124023,-2.5,1.76,0.93
0.081407,-0.378303,-9.912501,0.022089,-0.00145,-0.011585,-1536.890625,-905.628906,-2011.824584,-2.5,1.76,0.93
0.081407,-0.378303,-9.912501,0.022089,-0.00145,-0.011585,-1536.890625,-905.628906,-2011.824584,-2.5,1.76,0.93
0.090984,-0.35436,-9.946022,0.024619,0.000015,-0.009854,-1536.890625,-905.628906,-2011.824584,-2.51,1.76,0.93
0.086196,-0.349571,-9.955598,0.025418,-0.000119,-0.005593,-1536.890625,-905.628906,-2011.824584,-2.51,1.77,0.93
0.086196,-0.363937,-9.917289,0.02848,0.000947,0.001332,-1536.890625,-905.628906,-2011.824584,-2.51,1.77,0.93
0.086196,-0.363937,-9.917289,0.02848,0.000947,0.001332,-1536.890625,-905.628906,-2011.824584,-2.51,1.77,0.93
0.090984,-0.363937,-9.917289,0.030211,0.001213,0.000799,-1536.890625,-905.628906,-2011.824584,-2.51,1.77,0.93
0.095773,-0.373515,-9.902923,0.030078,0.002412,0.000799,-1536.890625,-905.628906,-2011.824584,-2.51,1.77,0.93
0.095773,-0.373515,-9.902923,0.030078,0.002412,0.000799,-1536.890625,-905.628906,-2011.824584,-2.52,1.78,0.93
0.086196,-0.368726,-9.907711,0.028214,0.002678,0.001198,-1535.985717,-905.085937,-2011.649414,-2.52,1.78,0.93
0.090984,-0.363937,-9.926867,0.028214,0.000547,0.001864,-1535.985717,-905.085937,-2011.649414,-2.52,1.78,0.93
0.090984,-0.363937,-9.926867,0.028214,0.000547,0.001864,-1535.985717,-905.085937,-2011.649414,-2.52,1.78,0.93
0.067041,-0.359149,-9.931655,0.02888,0.00068,0.002131,-1535.985717,-905.085937,-2011.649414,-2.52,1.79,0.93
0.090984,-0.359149,-9.946022,0.031543,0.001479,0.004794,-1535.985717,-905.085937,-2011.649414,-2.53,1.79,0.93
0.090984,-0.368726,-9.922078,0.037535,0.003077,0.010386,-1535.985717,-905.085937,-2011.649414,-2.53,1.79,0.93
0.090984,-0.368726,-9.922078,0.037535,0.003077,0.010386,-1535.985717,-905.085937,-2011.649414,-2.53,1.79,0.93
0.172391,-0.38788,-9.907711,0.040997,0.004276,0.018642,-1535.985717,-905.085937,-2011.649414,-2.53,1.8,0.94
0.062252,-0.392669,-9.922078,0.03647,0.004942,0.044076,-1535.985717,-905.085937,-2011.649414,-2.53,1.8,0.94
0.062252,-0.392669,-9.922078,0.03647,0.004942,0.044076,-1535.985717,-905.085937,-2011.649414,-2.53,1.8,0.94
0.033521,-0.416612,-9.926867,0.028613,0.003477,0.034755,-1536.709594,-905.447937,-2009.197753,-2.54,1.8,0.94
0.086196,-0.421401,-9.922078,0.024619,0.000547,0.007457,-1536.709594,-905.447937,-2009.197753,-2.54,1.81,0.95
0.090984,-0.38788,-9.902923,0.020224,-0.000518,-0.003595,-1536.709594,-905.447937,-2009.197753,-2.54,1.81,0.95
0.090984,-0.38788,-9.902923,0.020224,-0.000518,-0.003595,-1536.709594,-905.447937,-2009.197753,-2.54,1.81,0.95
0.07183,-0.363937,-9.902923,0.01583,-0.002382,-0.005992,-1536.709594,-905.447937,-2009.197753,-2.54,1.81,0.95
0.095773,-0.383092,-9.902923,0.017295,-0.003314,-0.007723,-1536.709594,-905.447937,-2009.197753,-2.55,1.81,0.95
0.095773,-0.383092,-9.902923,0.017295,-0.003314,-0.007723,-1536.709594,-905.447937,-2009.197753,-2.55,1.81,0.95
0.081407,-0.378303,-9.912501,0.019958,-0.003581,-0.006392,-1536.709594,-905.447937,-2009.197753,-2.55,1.82,0.95
0.086196,-0.363937,-9.907711,0.021955,-0.003581,-0.005859,-1536.166748,-906.352844,-2011.824584,-2.55,1.82,0.95
0.086196,-0.363937,-9.907711,0.021955,-0.003581,-0.005859,-1536.166748,-906.352844,-2011.824584,-2.55,1.82,0.95
0.086196,-0.383092,-9.922078,0.02089,-0.003048,-0.007324,-1536.166748,-906.352844,-2011.824584,-2.56,1.82,0.95
0.090984,-0.38788,-9.912501,0.022089,-0.001983,-0.008655,-1536.166748,-906.352844,-2011.824584,-2.56,1.82,0.95
0.086196,-0.378303,-9.912501,0.023021,-0.001583,-0.007457,-1536.166748,-906.352844,-2011.824584,-2.56,1.82,0.95
0.086196,-0.378303,-9.912501,0.023021,-0.001583,-0.007457,-1536.166748,-906.352844,-2011.824584,-2.56,1.83,0.95
0.07183,-0.383092,-9.883769,0.024086,-0.000651,-0.003462,-1536.166748,-906.352844,-2011.824584,-2.56,1.83,0.95
0.076618,-0.35436,-9.902923,0.027149,0.000814,-0.001465,-1536.166748,-906.352844,-2011.824584,-2.57,1.83,0.95
0.076618,-0.35436,-9.902923,0.027149,0.000814,-0.001465,-1536.166748,-906.352844,-2011.824584,-2.57,1.83,0.95
0.07183,-0.373515,-9.907711,0.029546,0.000414,-0.000533,-1536.890625,-906.352844,-2011.474365,-2.57,1.83,0.95
0.081407,-0.383092,-9.907711,0.027814,-0.000119,-0.000932,-1536.890625,-906.352844,-2011.474365,-2.57,1.84,0.95
0.081407,-0.373515,-9.922078,0.025551,-0.000917,-0.000133,-1536.890625,-906.352844,-2011.474365,-2.57,1.84,0.95
0.081407,-0.373515,-9.922078,0.025551,-0.000917,-0.000133,-1536.890625,-906.352844,-2011.474365,-2.58,1.84,0.95
0.081407,-0.378303,-9.893346,0.02342,-0.000784,-0.001065,-1536.890625,-906.352844,-2011.474365,-2.58,1.84,0.95
-0.019155,-0.445344,-9.912501,0.022355,-0.001583,-0.013715,-1536.890625,-906.352844,-2011.474365,-2.58,1.84,0.95
-0.019155,-0.445344,-9.912501,0.022355,-0.001583,-0.013715,-1536.890625,-906.352844,-2011.474365,-2.58,1.85,0.95
0.076618,-0.383092,-9.902923,0.023687,-0.002915,-0.072972,-1536.890625,-906.352844,-2011.474365,-2.58,1.85,0.94
0.10535,-0.349571,-9.893346,0.024219,-0.003048,-0.066846,-1536.890625,-906.352844,-2011.474365,-2.59,1.85,0.94
0.100562,-0.339994,-9.917289,0.025018,-0.002249,-0.051,-1536.528686,-905.266967,-2011.474365,-2.59,1.85,0.94
0.100562,-0.339994,-9.917289,0.025018,-0.002249,-0.051,-1536.528686,-905.266967,-2010.773803,-2.59,1.85,0.94
0.062252,-0.349571,-9.907711,0.025817,0.000547,-0.02277,-1536.528686,-905.266967,-2010.773803,-2.59,1.86,0.93
0.07183,-0.359149,-9.912501,0.02635,0.000148,-0.009454,-1536.528686,-905.266967,-2010.773803,-2.59,1.86,0.93
0.07183,-0.359149,-9.912501,0.02635,0.000148,-0.009454,-1536.528686,-905.266967,-2010.773803,-2.59,1.86,0.93
0.076618,-0.368726,-9.922078,0.02635,0.000281,-0.003862,-1536.528686,-905.266967,-2010.773803,-2.6,1.86,0.93
0.067041,-0.368726,-9.907711,0.02635,0.000148,-0.000799,-1536.528686,-905.266967,-2010.773803,-2.6,1.86,0.93
0.067041,-0.368726,-9.907711,0.02635,0.000148,-0.000799,-1536.528686,-905.266967,-2010.773803,-2.6,1.87,0.93
0.090984,-0.373515,-9.888557,0.026483,0.000814,0.000133,-1536.528686,-905.266967,-2010.773803,-2.6,1.87,0.94
0.076618,-0.373515,-9.926867,0.027415,0.000947,-0.000666,-1535.985717,-906.171813,-2010.598754,-2.6,1.87,0.94
0.076618,-0.373515,-9.907711,0.027814,0.000414,-0.000399,-1535.985717,-906.171813,-2010.598754,-2.61,1.87,0.94
0.076618,-0.373515,-9.907711,0.027814,0.000414,-0.000399,-1535.985717,-906.171813,-2010.598754,-2.61,1.87,0.94
0.090984,-0.378303,-9.893346,0.026882,0.000414,-0.000266,-1535.985717,-906.171813,-2010.598754,-2.61,1.88,0.94
0.076618,-0.368726,-9.883769,0.02635,-0.000385,0.000399,-1535.985717,-906.171813,-2010.598754,-2.61,1.88,0.94
0.076618,-0.368726,-9.883769,0.02635,-0.000385,0.000399,-1535.985717,-906.171813,-2010.598754,-2.61,1.88,0.94
0.076618,-0.368726,-9.902923,0.027415,0.000281,0.000799,-1535.985717,-906.171813,-2010.598754,-2.61,1.88,0.94
0.086196,-0.359149,-9.888557,0.02848,0.002012,-0.001465,-1535.985717,-906.171813,-2010.598754,-2.62,1.88,0.94
0.090984,-0.359149,-9.912501,0.029546,0.002278,-0.000932,-1536.528686,-906.714782,-2011.124023,-2.62,1.89,0.94
0.090984,-0.359149,-9.912501,0.029546,0.002278,-0.000932,-1536.528686,-906.714782,-2011.124023,-2.62,1.89,0.94
0.095773,-0.378303,-9.888557,0.029546,0.001213,-0.001332,-1536.528686,-906.714782,-2011.124023,-2.62,1.89,0.94
0.086196,-0.383092,-9.922078,0.026483,0.000015,-0.001465,-1536.528686,-906.714782,-2011.124023,-2.62,1.89,0.94
0.086196,-0.383092,-9.922078,0.026483,0.000015,-0.001465,-1536.528686,-906.714782,-2011.124023,-2.63,1.9,0.94
0.076618,-0.368726,-9.907711,0.025018,-0.000917,-0.000133,-1536.528686,-906.714782,-2011.124023,-2.63,1.9,0.94
0.086196,-0.368726,-9.893346,0.025151,0.000281,0.000533,-1536.528686,-906.714782,-2011.124023,-2.63,1.9,0.94
0.086196,-0.368726,-9.893346,0.025151,0.000281,0.000533,-1536.528686,-906.714782,-2011.124023,-2.63,1.9,0.94
0.081407,-0.368726,-9.893346,0.026083,0.000281,-0.000533,-1536.528686,-906.714782,-2011.124023,-2.63,1.9,0.94
0.081407,-0.373515,-9.893346,0.027415,0.000547,-0.000133,-1537.071533,-905.809875,-2009.898193,-2.63,1.91,0.94
0.090984,-0.373515,-9.912501,0.027948,0.001479,0.000533,-1537.071533,-905.809875,-2009.898193,-2.64,1.91,0.94
0.090984,-0.373515,-9.912501,0.027948,0.001479,0.000533,-1537.071533,-905.809875,-2009.898193,-2.64,1.91,0.94
0.081407,-0.368726,-9.917289,0.027948,0.000814,0.000399,-1537.071533,-905.809875,-2009.898193,-2.64,1.91,0.94
0.081407,-0.378303,-9.907711,0.027016,0.001879,0.000266,-1537.071533,-905.809875,-2009.898193,-2.64,1.91,0.94
0.081407,-0.378303,-9.907711,0.027016,0.001879,0.000266,-1537.071533,-905.809875,-2009.898193,-2.64,1.92,0.94
0.081407,-0.383092,-9.893346,0.027548,0.001213,-0.001731,-1537.071533,-905.809875,-2009.898193,-2.64,1.92,0.94
0.090984,-0.373515,-9.883769,0.027948,0.000015,-0.002264,-1537.071533,-905.809875,-2009.898193,-2.65,1.92,0.94
0.086196,-0.383092,-9.898135,0.026882,0.000947,-0.000399,-1537.071533,-905.809875,-2009.898193,-2.65,1.92,0.94
0.086196,-0.383092,-9.898135,0.026882,0.000947,-0.000399,-1537.071533,-905.809875,-2009.898193,-2.65,1.92,0.94
0.081407,-0.383092,-9.917289,0.027016,0.001479,0.000133,-1535.442749,-906.714782,-2010.773803,-2.65,1.93,0.95
0.081407,-0.373515,-9.902923,0.027415,-0.000252,-0.000399,-1535.442749,-906.714782,-2010.773803,-2.65,1.93,0.95
0.081407,-0.373515,-9.902923,0.027415,-0.000252,-0.000399,-1535.442749,-906.714782,-2010.773803,-2.66,1.93,0.95
0.07183,-0.38788,-9.912501,0.026882,-0.000518,-0.000399,-1535.442749,-906.714782,-2010.773803,-2.66,1.93,0.95
0.086196,-0.373515,-9.888557,0.025418,0.000015,0.000133,-1535.442749,-906.714782,-2010.773803,-2.66,1.93,0.95
0.086196,-0.373515,-9.888557,0.025418,0.000015,0.000133,-1535.442749,-906.714782,-2010.773803,-2.66,1.94,0.95
0.081407,-0.378303,-9.931655,0.026616,0.000148,-0.000932,-1535.442749,-906.714782,-2010.773803,-2.66,1.94,0.95
0.081407,-0.378303,-9.893346,0.026882,-0.000784,-0.000133,-1535.442749,-906.714782,-2010.773803,-2.66,1.94,0.95
0.090984,-0.378303,-9.936444,0.027016,0.000148,0.000799,-1535.804687,-906.352844,-2009.022583,-2.67,1.94,0.95
0.090984,-0.378303,-9.936444,0.027016,0.000148,0.000799,-1535.804687,-906.352844,-2009.022583,-2.67,1.94,0.95
0.086196,-0.392669,-9.902923,0.027681,0.000814,0.001332,-1535.804687,-906.352844,-2009.022583,-2.67,1.95,0.95
0.076618,-0.368726,-9.907711,0.027681,0.001346,0,-1535.804687,-906.352844,-2009.022583,-2.67,1.95,0.95
0.076618,-0.368726,-9.907711,0.027681,0.001346,0,-1535.804687,-906.352844,-2009.022583,-2.67,1.95,0.95
0.086196,-0.38788,-9.922078,0.02595,0.000148,-0.001332,-1535.804687,-906.352844,-2009.022583,-2.67,1.95,0.95
0.07183,-0.383092,-9.888557,0.025151,-0.000252,-0.001864,-1535.804687,-906.352844,-2009.022583,-2.68,1.95,0.95
0.081407,-0.368726,-9.912501,0.026882,0.000414,-0.001332,-1535.804687,-906.352844,-2009.022583,-2.68,1.96,0.95
0.081407,-0.368726,-9.912501,0.026882,0.000414,-0.001332,-1535.804687,-906.352844,-2009.022583,-2.68,1.96,0.95
0.086196,-0.378303,-9.893346,0.026882,0.000414,-0.000533,-1535.623779,-906.895751,-2010.948974,-2.68,1.96,0.95
0.081407,-0.373515,-9.912501,0.026083,0.000547,-0.000799,-1535.623779,-906.895751,-2010.948974,-2.68,1.96,0.95
0.081407,-0.373515,-9.912501,0.026083,0.000547,-0.000799,-1535.623779,-906.895751,-2010.948974,-2.68,1.96,0.95
0.076618,-0.368726,-9.922078,0.027415,0.000814,-0.000799,-1535.623779,-906.895751,-2010.948974,-2.69,1.97,0.95
0.095773,-0.368726,-9.917289,0.02888,0.00068,-0.001332,-1535.623779,-906.895751,-2010.948974,-2.69,1.97,0.95
0.095773,-0.368726,-9.917289,0.02888,0.00068,-0.001332,-1535.623779,-906.895751,-2010.948974,-2.69,1.97,0.95
0.090984,-0.397458,-9.912501,0.027149,0.00068,0.000133,-1535.623779,-906.895751,-2010.948974,-2.69,1.97,0.95
0.095773,-0.373515,-9.912501,0.024752,-0.000518,0.001465,-1535.623779,-906.895751,-2010.948974,-2.69,1.98,0.95
0.081407,-0.373515,-9.898135,0.027149,0.000414,-0.000666,-1535.623779,-906.895751,-2010.948974,-2.69,1.98,0.95
0.081407,-0.373515,-9.898135,0.027149,0.000414,-0.000666,-1535.623779,-906.895751,-2010.948974,-2.7,1.98,0.95
0.100562,-0.38788,-9.898135,0.028081,0.000281,-0.002264,-1536.528686,-905.990844,-2011.124023,-2.7,1.98,0.95
0.100562,-0.368726,-9.883769,0.027548,0.000148,-0.001465,-1536.528686,-905.990844,-2011.124023,-2.7,1.98,0.95
0.100562,-0.368726,-9.883769,0.027548,0.000148,-0.001465,-1536.528686,-905.990844,-2011.124023,-2.7,1.99,0.95
0.076618,-0.363937,-9.936444,0.026083,-0.000119,0.000666,-1536.528686,-905.990844,-2011.124023,-2.7,1.99,0.96
0.076618,-0.363937,-9.893346,0.026483,-0.000385,0.000666,-1536.528686,-905.990844,-2011.124023,-2.71,1.99,0.96
0.07183,-0.368726,-9.898135,0.027016,-0.000252,-0.001598,-1536.528686,-905.990844,-2011.124023,-2.71,1.99,0.96
0.07183,-0.368726,-9.898135,0.027016,-0.000252,-0.001598,-1536.528686,-905.990844,-2011.124023,-2.71,1.99,0.96
0.086196,-0.383092,-9.907711,0.027016,0.000015,-0.002264,-1536.528686,-905.990844,-2011.124023,-2.71,2,0.96
0.081407,-0.373515,-9.926867,0.025551,0.000281,-0.000799,-1535.442749,-904.543029,-2011.124023,-2.71,2,0.96
0.081407,-0.373515,-9.926867,0.025551,0.000281,-0.000799,-1535.442749,-904.543029,-2011.124023,-2.71,2,0.96
0.086196,-0.373515,-9.912501,0.026616,-0.000119,0,-1535.442749,-904.543029,-2011.124023,-2.72,2,0.96
0.086196,-0.378303,-9.917289,0.027948,-0.000252,0.000399,-1535.442749,-904.543029,-2011.124023,-2.72,2,0.96
0.086196,-0.378303,-9.917289,0.027948,-0.000252,0.000399,-1535.442749,-904.543029,-2011.124023,-2.72,2.01,0.96
0.081407,-0.383092,-9.893346,0.026749,0.000547,-0.002131,-1535.442749,-904.543029,-2011.124023,-2.72,2.01,0.96
0.07183,-0.373515,-9.917289,0.025684,0.000015,-0.001864,-1535.442749,-904.543029,-2011.124023,-2.72,2.01,0.96
0.086196,-0.373515,-9.907711,0.025284,-0.000651,-0.000932,-1535.442749,-904.543029,-2011.124023,-2.72,2.01,0.96
0.086196,-0.373515,-9.907711,0.025284,-0.000651,-0.000932,-1535.442749,-904.543029,-2011.124023,-2.73,2.01,0.96
0.076618,-0.368726,-9.936444,0.025418,0.00068,-0.001198,-1536.528686,-907.076721,-2010.773803,-2.73,2.02,0.96
0.095773,-0.383092,-9.907711,0.02595,0.000015,-0.000799,-1536.528686,-907.076721,-2010.773803,-2.73,2.02,0.96
0.095773,-0.383092,-9.907711,0.02595,0.000015,-0.000799,-1536.528686,-907.076721,-2010.773803,-2.73,2.02,0.96
0.081407,-0.38788,-9.912501,0.026217,-0.000651,0.000932,-1536.528686,-907.076721,-2010.773803,-2.73,2.02,0.96
0.086196,-0.359149,-9.917289,0.026483,-0.000518,0.000799,-1536.528686,-907.076721,-2010.773803,-2.73,2.02,0.96
0.081407,-0.363937,-9.912501,0.026749,-0.000252,-0.000399,-1536.528686,-907.076721,-2010.773803,-2.74,2.03,0.96
0.081407,-0.363937,-9.912501,0.026749,-0.000252,-0.000399,-1536.528686,-907.076721,-2010.773803,-2.74,2.03,0.96
0.086196,-0.392669,-9.893346,0.027282,-0.000252,-0.000533,-1536.528686,-907.076721,-2010.773803,-2.74,2.03,0.96
0.100562,-0.383092,-9.893346,0.026483,-0.000252,0.000533,-1535.623779,-905.809875,-2009.197753,-2.74,2.03,0.96
0.100562,-0.383092,-9.893346,0.026483,-0.000252,0.000533,-1535.623779,-905.809875,-2009.197753,-2.74,2.03,0.96
0.095773,-0.378303,-9.883769,0.026749,-0.000119,-0.000799,-1535.623779,-905.809875,-2009.197753,-2.74,2.04,0.96
0.086196,-0.383092,-9.912501,0.027149,0.000414,-0.001465,-1535.623779,-905.809875,-2009.197753,-2.75,2.04,0.96
0.086196,-0.383092,-9.912501,0.027149,0.000414,-0.001465,-1535.623779,-905.809875,-2009.197753,-2.75,2.04,0.96
0.086196,-0.383092,-9.917289,0.02595,-0.000119,-0.001198,-1535.623779,-905.809875,-2009.197753,-2.75,2.04,0.96
0.095773,-0.368726,-9.883769,0.027415,0.000281,-0.000399,-1535.623779,-905.809875,-2009.197753,-2.75,2.04,0.96
0.086196,-0.383092,-9.888557,0.026616,-0.000252,-0.000399,-1535.623779,-905.809875,-2009.197753,-2.75,2.05,0.96
0.086196,-0.383092,-9.888557,0.026616,-0.000252,-0.000399,-1535.623779,-905.809875,-2009.197753,-2.75,2.05,0.96
0.095773,-0.383092,-9.898135,0.025551,0.000148,-0.001598,-1535.623779,-905.809875,-2009.197753,-2.76,2.05,0.96
0.090984,-0.383092,-9.912501,0.026616,-0.000119,-0.000399,-1535.985717,-905.809875,-2009.898193,-2.76,2.05,0.96
0.090984,-0.383092,-9.912501,0.026616,-0.000119,-0.000399,-1535.985717,-905.809875,-2009.898193,-2.76,2.05,0.97
0.095773,-0.368726,-9.902923,0.025551,-0.000119,-0.000133,-1535.985717,-905.809875,-2009.898193,-2.76,2.06,0.97
0.090984,-0.383092,-9.912501,0.026483,-0.000252,-0.001065,-1535.985717,-905.809875,-2009.898193,-2.76,2.06,0.97
0.081407,-0.383092,-9.907711,0.027415,-0.000119,-0.000399,-1535.985717,-905.809875,-2009.898193,-2.76,2.06,0.97
0.081407,-0.383092,-9.907711,0.027415,-0.000119,-0.000399,-1535.985717,-905.809875,-2009.898193,-2.77,2.06,0.97
0.081407,-0.383092,-9.902923,0.027681,0.00108,0.001864,-1535.985717,-905.809875,-2009.898193,-2.77,2.06,0.97
0.086196,-0.373515,-9.893346,0.027016,0.000547,0.000799,-1535.985717,-905.809875,-2009.898193,-2.77,2.07,0.97
0.086196,-0.373515,-9.893346,0.027016,0.000547,0.000799,-1535.985717,-905.809875,-2009.898193,-2.77,2.07,0.97
0.086196,-0.383092,-9.926867,0.025817,0.000015,-0.001864,-1535.985717,-906.533813,-2010.248413,-2.77,2.07,0.97
0.086196,-0.383092,-9.898135,0.024885,0.000281,-0.000799,-1535.985717,-906.533813,-2010.248413,-2.77,2.07,0.97
0.086196,-0.378303,-9.926867,0.024885,0.000947,-0.000533,-1535.985717,-906.533813,-2010.248413,-2.77,2.07,0.97
0.086196,-0.378303,-9.926867,0.024885,0.000947,-0.000533,-1535.985717,-906.533813,-2010.248413,-2.78,2.08,0.97
0.090984,-0.383092,-9.917289,0.027948,0.000281,0.000266,-1535.985717,-906.533813,-2010.248413,-2.78,2.08,0.97
0.086196,-0.383092,-9.912501,0.026882,-0.000252,-0.000266,-1535.985717,-906.533813,-2010.248413,-2.78,2.08,0.97
0.086196,-0.383092,-9.912501,0.026882,-0.000252,-0.000266,-1535.985717,-906.533813,-2010.248413,-2.78,2.08,0.97
0.086196,-0.383092,-9.917289,0.026616,0.000148,0,-1535.985717,-906.533813,-2010.248413,-2.78,2.08,0.97
0.081407,-0.383092,-9.926867,0.027948,0.000414,-0.000399,-1536.166748,-905.628906,-2010.773803,-2.78,2.09,0.97
0.081407,-0.383092,-9.926867,0.027948,0.000414,-0.000399,-1536.166748,-905.628906,-2010.773803,-2.79,2.09,0.97
0.076618,-0.373515,-9.917289,0.028347,0.000281,-0.001198,-1536.166748,-905.628906,-2010.773803,-2.79,2.09,0.97
0.086196,-0.373515,-9.917289,0.027149,0.000281,-0.001465,-1536.166748,-905.628906,-2010.773803,-2.79,2.09,0.97
0.095773,-0.397458,-9.922078,0.026616,0.000015,-0.00253,-1536.166748,-905.628906,-2010.773803,-2.79,2.09,0.97
0.095773,-0.397458,-9.922078,0.026616,0.000015,-0.00253,-1536.166748,-905.628906,-2010.773803,-2.79,2.1,0.97
0.095773,-0.373515,-9.893346,0.026483,0.000015,-0.00293,-1536.166748,-905.628906,-2010.773803,-2.79,2.1,0.97
0.086196,-0.373515,-9.883769,0.026217,-0.000252,-0.002264,-1536.166748,-905.628906,-2010.773803,-2.8,2.1,0.97
0.086196,-0.373515,-9.883769,0.026217,-0.000252,-0.002264,-1536.166748,-905.628906,-2010.773803,-2.8,2.1,0.97
0.095773,-0.368726,-9.907711,0.027814,0.000148,-0.001065,-1535.442749,-905.990844,-2011.124023,-2.8,2.1,0.97
0.100562,-0.373515,-9.926867,0.027282,0.000281,-0.000666,-1535.442749,-905.990844,-2011.124023,-2.8,2.11,0.97
0.081407,-0.383092,-9.907711,0.026217,-0.000252,-0.000266,-1535.442749,-905.990844,-2011.124023,-2.8,2.11,0.97
0.081407,-0.383092,-9.907711,0.026217,-0.000252,-0.000266,-1535.442749,-905.990844,-2011.124023,-2.8,2.11,0.97
0.090984,-0.363937,-9.931655,0.027415,-0.000252,0.001465,-1535.442749,-905.990844,-2011.124023,-2.81,2.11,0.97
0.090984,-0.378303,-9.912501,0.02635,0.000281,0.000266,-1535.442749,-905.990844,-2011.124023,-2.81,2.11,0.97
0.090984,-0.378303,-9.912501,0.02635,0.000281,0.000266,-1535.442749,-905.990844,-2011.124023,-2.81,2.12,0.97
0.090984,-0.38788,-9.902923,0.027149,0.000015,-0.001198,-1535.442749,-905.990844,-2011.124023,-2.81,2.12,0.97
0.10535,-0.38788,-9.917289,0.025418,0.000015,-0.001598,-1535.442749,-905.990844,-2011.124023,-2.81,2.12,0.97
0.10535,-0.38788,-9.917289,0.025418,0.000015,-0.001598,-1535.442749,-905.990844,-2011.124023,-2.81,2.12,0.98
0.090984,-0.368726,-9.917289,0.02595,0.000015,-0.000533,-1536.709594,-906.171813,-2009.547973,-2.81,2.12,0.98
0.081407,-0.378303,-9.917289,0.025418,0.000547,0.000533,-1536.709594,-906.171813,-2009.547973,-2.82,2.13,0.98
0.076618,-0.378303,-9.926867,0.025817,0.000281,-0.000399,-1536.709594,-906.171813,-2009.547973,-2.82,2.13,0.98
0.076618,-0.378303,-9.926867,0.025817,0.000281,-0.000399,-1536.709594,-906.171813,-2009.547973,-2.82,2.13,0.98
0.081407,-0.38788,-9.898135,0.027016,-0.000518,-0.000799,-1536.709594,-906.171813,-2009.547973,-2.82,2.13,0.98
0.081407,-0.378303,-9.931655,0.026616,-0.000385,-0.000399,-1536.709594,-906.171813,-2009.547973,-2.82,2.13,0.98
0.081407,-0.378303,-9.931655,0.026616,-0.000385,-0.000399,-1536.709594,-906.171813,-2009.547973,-2.82,2.13,0.98
0.086196,-0.359149,-9.907711,0.025418,0.000414,-0.001332,-1536.709594,-906.171813,-2009.547973,-2.83,2.14,0.98
0.090984,-0.378303,-9.907711,0.02635,0.00068,-0.001065,-1535.985717,-906.171813,-2010.598754,-2.83,2.14,0.98
0.07183,-0.363937,-9.926867,0.027948,-0.000385,0.000533,-1535.985717,-906.171813,-2010.598754,-2.83,2.14,0.98
0.07183,-0.363937,-9.926867,0.027948,-0.000385,0.000533,-1535.985717,-906.171813,-2010.598754,-2.83,2.14,0.98
0.090984,-0.368726,-9.917289,0.027548,-0.000651,-0.000666,-1535.985717,-906.171813,-2010.598754,-2.83,2.14,0.98
0.086196,-0.373515,-9.902923,0.025284,-0.001051,-0.000799,-1535.985717,-906.171813,-2010.598754,-2.83,2.15,0.98
0.086196,-0.373515,-9.902923,0.025284,-0.001051,-0.000799,-1535.985717,-906.171813,-2010.598754,-2.84,2.15,0.98
0.095773,-0.368726,-9.907711,0.026083,0.001213,-0.000266,-1535.985717,-906.171813,-2010.598754,-2.84,2.15,0.98
0.086196,-0.368726,-9.902923,0.026217,0.000414,-0.000666,-1535.985717,-906.171813,-2010.598754,-2.84,2.15,0.98
0.086196,-0.368726,-9.902923,0.026217,0.000414,-0.000666,-1535.985717,-906.171813,-2010.598754,-2.84,2.15,0.98
0.076618,-0.378303,-9.907711,0.026083,-0.000119,-0.001065,-1536.347656,-906.171813,-2010.948974,-2.84,2.16,0.98
0.090984,-0.38788,-9.898135,0.02635,-0.000119,-0.001065,-1536.347656,-906.171813,-2010.948974,-2.84,2.16,0.98
0.095773,-0.368726,-9.898135,0.028613,0.000414,-0.000666,-1536.347656,-906.171813,-2010.948974,-2.84,2.16,0.98
0.095773,-0.368726,-9.898135,0.028613,0.000414,-0.000666,-1536.347656,-906.171813,-2010.948974,-2.85,2.16,0.98
0.086196,-0.378303,-9.898135,0.027548,-0.000784,0,-1536.347656,-906.171813,-2010.948974,-2.85,2.16,0.98
0.076618,-0.397458,-9.893346,0.027149,-0.000651,-0.000266,-1536.347656,-906.171813,-2010.948974,-2.85,2.17,0.98
0.076618,-0.397458,-9.893346,0.027149,-0.000651,-0.000266,-1536.347656,-906.171813,-2010.948974,-2.85,2.17,0.98
0.095773,-0.373515,-9.902923,0.025151,-0.000518,-0.000533,-1536.347656,-906.171813,-2010.948974,-2.85,2.17,0.98
0.090984,-0.373515,-9.888557,0.024885,-0.000518,-0.000533,-1536.347656,-906.171813,-2010.948974,-2.85,2.17,0.98
0.090984,-0.383092,-9.907711,0.025817,-0.000119,-0.000266,-1536.709594,-905.447937,-2010.948974,-2.86,2.17,0.98
0.090984,-0.383092,-9.907711,0.025817,-0.000119,-0.000266,-1536.709594,-905.447937,-2011.999633,-2.86,2.18,0.98
0.076618,-0.383092,-9.907711,0.025551,0.000414,0.000533,-1536.709594,-905.447937,-2011.999633,-2.86,2.18,0.98
0.081407,-0.368726,-9.907711,0.02595,0.000414,0,-1536.709594,-905.447937,-2011.999633,-2.86,2.18,0.98
0.081407,-0.368726,-9.907711,0.02595,0.000414,0,-1536.709594,-905.447937,-2011.999633,-2.86,2.18,0.98
0.100562,-0.368726,-9.898135,0.026749,0.000547,0.000799,-1536.709594,-905.447937,-2011.999633,-2.86,2.18,0.98
0.086196,-0.378303,-9.902923,0.026217,0.000148,-0.000133,-1536.709594,-905.447937,-2011.999633,-2.86,2.19,0.98
0.086196,-0.378303,-9.902923,0.026217,0.000148,-0.000133,-1536.709594,-905.447937,-2011.999633,-2.87,2.19,0.99
0.07183,-0.363937,-9.912501,0.026882,-0.000385,-0.001598,-1536.709594,-905.447937,-2011.999633,-2.87,2.19,0.99
0.081407,-0.378303,-9.922078,0.026483,0.000015,-0.003063,-1536.166748,-906.352844,-2010.423583,-2.87,2.19,0.99
0.086196,-0.363937,-9.912501,0.026217,0.000015,-0.002264,-1536.166748,-906.352844,-2010.423583,-2.87,2.19,0.99
0.086196,-0.363937,-9.912501,0.026217,0.000015,-0.002264,-1536.166748,-906.352844,-2010.423583,-2.87,2.2,0.99
0.095773,-0.373515,-9.912501,0.02595,0.000414,-0.000133,-1536.166748,-906.352844,-2010.423583,-2.87,2.2,0.99
0.086196,-0.383092,-9.869402,0.026483,0.000281,0.000399,-1536.166748,-906.352844,-2010.423583,-2.87,2.2,0.99
0.086196,-0.383092,-9.869402,0.026483,0.000281,0.000399,-1536.166748,-906.352844,-2010.423583,-2.88,2.2,0.99
0.086196,-0.397458,-9.850248,0.02595,-0.000252,0.000266,-1536.166748,-906.352844,-2010.423583,-2.88,2.2,0.99
0.090984,-0.373515,-9.874192,0.026083,0.00068,-0.000133,-1536.166748,-906.352844,-2010.423583,-2.88,2.21,0.99
0.090984,-0.373515,-9.874192,0.026083,0.00068,-0.000133,-1536.166748,-906.352844,-2010.423583,-2.88,2.21,0.99
0.090984,-0.373515,-9.883769,0.025817,0.000414,-0.000666,-1536.166748,-905.990844,-2011.124023,-2.88,2.21,0.99
0.081407,-0.392669,-9.898135,0.026217,0.000281,-0.000932,-1536.166748,-905.990844,-2011.124023,-2.88,2.21,0.99
0.086196,-0.373515,-9.902923,0.026616,-0.000385,-0.000266,-1536.166748,-905.990844,-2011.124023,-2.89,2.21,0.99
0.086196,-0.373515,-9.902923,0.026616,-0.000385,-0.000266,-1536.166748,-905.990844,-2011.124023,-2.89,2.21,0.99
0.081407,-0.368726,-9.893346,0.026616,-0.000518,-0.001065,-1536.166748,-905.990844,-2011.124023,-2.89,2.22,0.99
0.081407,-0.378303,-9.893346,0.026483,0.000414,-0.000399,-1536.166748,-905.990844,-2011.124023,-2.89,2.22,0.99
0.081407,-0.378303,-9.893346,0.026483,0.000414,-0.000399,-1536.166748,-905.990844,-2011.124023,-2.89,2.22,0.99
0.095773,-0.378303,-9.898135,0.025551,-0.000917,-0.001065,-1536.166748,-905.990844,-2011.124023,-2.89,2.22,0.99
0.07183,-0.373515,-9.898135,0.025151,0.000015,-0.001465,-1536.347656,-906.533813,-2010.948974,-2.89,2.22,0.99
0.090984,-0.378303,-9.912501,0.026483,-0.000252,-0.000932,-1536.347656,-906.533813,-2010.948974,-2.9,2.23,0.99
0.090984,-0.378303,-9.912501,0.026483,-0.000252,-0.000932,-1536.347656,-906.533813,-2010.948974,-2.9,2.23,0.99
0.067041,-0.368726,-9.907711,0.02595,-0.000252,-0.000399,-1536.347656,-906.533813,-2010.948974,-2.9,2.23,0.99
0.081407,-0.383092,-9.893346,0.027282,0.000414,-0.000799,-1536.347656,-906.533813,-2010.948974,-2.9,2.23,0.99
0.081407,-0.383092,-9.893346,0.027282,0.000414,-0.000799,-1536.347656,-906.533813,-2010.948974,-2.9,2.23,0.99
0.095773,-0.373515,-9.917289,0.02595,0.000947,-0.002131,-1536.347656,-906.533813,-2010.948974,-2.9,2.24,0.99
0.10535,-0.38788,-9.893346,0.02635,-0.000518,-0.002264,-1536.347656,-906.533813,-2010.948974,-2.9,2.24,0.99
0.086196,-0.383092,-9.898135,0.026083,-0.000518,-0.001465,-1536.347656,-906.533813,-2010.948974,-2.91,2.24,0.99
0.086196,-0.383092,-9.898135,0.026083,-0.000518,-0.001465,-1536.347656,-906.533813,-2010.948974,-2.91,2.24,0.99
0.086196,-0.378303,-9.936444,0.027016,-0.000784,-0.001198,-1537.252563,-904.904968,-2009.723022,-2.91,2.24,0.99
0.086196,-0.373515,-9.917289,0.027548,-0.000518,-0.001731,-1537.252563,-904.904968,-2009.723022,-2.91,2.25,0.99
0.086196,-0.373515,-9.917289,0.027548,-0.000518,-0.001731,-1537.252563,-904.904968,-2009.723022,-2.91,2.25,0.99
0.086196,-0.383092,-9.917289,0.02635,0.000148,-0.000799,-1537.252563,-904.904968,-2009.723022,-2.91,2.25,0.99
0.081407,-0.392669,-9.898135,0.026882,-0.000518,0.000533,-1537.252563,-904.904968,-2009.723022,-2.91,2.25,0.99
0.081407,-0.392669,-9.898135,0.026882,-0.000518,0.000533,-1537.252563,-904.904968,-2009.723022,-2.92,2.25,0.99
0.081407,-0.368726,-9.912501,0.026616,0.000281,0.000799,-1537.252563,-904.904968,-2009.723022,-2.92,2.26,0.99
0.081407,-0.368726,-9.898135,0.026083,0.000414,0.000666,-1537.252563,-904.904968,-2009.723022,-2.92,2.26,0.99
0.076618,-0.378303,-9.912501,0.025684,0.000414,0,-1536.347656,-906.533813,-2010.598754,-2.92,2.26,0.99
0.076618,-0.378303,-9.912501,0.025684,0.000414,0,-1536.347656,-906.533813,-2010.598754,-2.92,2.26,0.99
0.076618,-0.383092,-9.907711,0.025284,-0.000385,-0.000666,-1536.347656,-906.533813,-2010.598754,-2.92,2.26,1
0.07183,-0.392669,-9.902923,0.025817,-0.000252,-0.001198,-1536.347656,-906.533813,-2010.598754,-2.93,2.27,1
0.07183,-0.392669,-9.902923,0.025817,-0.000252,-0.001198,-1536.347656,-906.533813,-2010.598754,-2.93,2.27,1
0.07183,-0.38788,-9.898135,0.027016,0.000015,-0.000799,-1536.347656,-906.533813,-2010.598754,-2.93,2.27,1
0.086196,-0.368726,-9.893346,0.026483,-0.000252,-0.001065,-1536.347656,-906.533813,-2010.598754,-2.93,2.27,1
0.076618,-0.368726,-9.893346,0.026616,-0.000252,-0.000533,-1536.347656,-906.533813,-2010.598754,-2.93,2.27,1
0.076618,-0.368726,-9.893346,0.026616,-0.000252,-0.000533,-1536.347656,-906.533813,-2010.598754,-2.93,2.27,1
0.076618,-0.373515,-9.912501,0.02635,0.000015,-0.001198,-1537.614501,-905.990844,-2011.124023,-2.93,2.28,1
0.07183,-0.373515,-9.936444,0.026217,0.000148,-0.001465,-1537.614501,-905.990844,-2011.124023,-2.94,2.28,1
0.07183,-0.373515,-9.936444,0.026217,0.000148,-0.001465,-1537.614501,-905.990844,-2011.124023,-2.94,2.28,1
0.081407,-0.363937,-9.936444,0.027016,-0.000385,-0.000799,-1537.614501,-905.990844,-2011.124023,-2.94,2.28,1
0.07183,-0.349571,-9.946022,0.027282,-0.000518,-0.001065,-1537.614501,-905.990844,-2011.124023,-2.94,2.28,1
0.07183,-0.349571,-9.946022,0.027282,-0.000518,-0.001065,-1537.614501,-905.990844,-2011.124023,-2.94,2.29,1
0.081407,-0.359149,-9.926867,0.026616,0.000015,-0.000932,-1537.614501,-905.990844,-2011.124023,-2.94,2.29,1
0.07183,-0.373515,-9.917289,0.026882,-0.000518,0.000399,-1537.614501,-905.990844,-2011.124023,-2.94,2.29,1
0.081407,-0.363937,-9.917289,0.027948,0.000414,-0.001065,-1537.614501,-905.990844,-2011.124023,-2.95,2.29,1
0.081407,-0.363937,-9.917289,0.027948,0.000414,-0.001065,-1537.614501,-905.990844,-2011.124023,-2.95,2.29,1
0.081407,-0.383092,-9.936444,0.027681,0.00068,-0.001465,-1535.442749,-905.990844,-2010.773803,-2.95,2.3,1
0.086196,-0.397458,-9.922078,0.026616,0.000547,-0.001332,-1535.442749,-905.990844,-2010.773803,-2.95,2.3,1
0.086196,-0.397458,-9.922078,0.026616,0.000547,-0.001332,-1535.442749,-905.990844,-2010.773803,-2.95,2.3,1
0.086196,-0.383092,-9.931655,0.026217,0.000414,-0.001198,-1535.442749,-905.990844,-2010.773803,-2.95,2.3,1
0.086196,-0.38788,-9.902923,0.02595,0.000947,-0.001465,-1535.442749,-905.990844,-2010.773803,-2.95,2.3,1
0.081407,-0.378303,-9.883769,0.027016,0.000547,-0.000799,-1535.442749,-905.990844,-2010.773803,-2.96,2.31,1
0.081407,-0.378303,-9.883769,0.027016,0.000547,-0.000799,-1535.442749,-905.990844,-2010.773803,-2.96,2.31,1
0.081407,-0.383092,-9.907711,0.028347,0.000281,-0.001332,-1535.442749,-905.990844,-2010.773803,-2.96,2.31,1
0.086196,-0.38788,-9.936444,0.027948,-0.000518,-0.001731,-1535.442749,-905.266967,-2010.773803,-2.96,2.31,1
0.086196,-0.38788,-9.936444,0.027948,-0.000518,-0.001731,-1535.442749,-905.266967,-2010.773803,-2.96,2.31,1
0.081407,-0.378303,-9.907711,0.026616,-0.000917,-0.000533,-1535.442749,-905.266967,-2010.773803,-2.96,2.32,1
0.081407,-0.378303,-9.917289,0.025684,-0.001317,-0.000533,-1535.442749,-905.266967,-2010.773803,-2.96,2.32,1
0.081407,-0.378303,-9.917289,0.025684,-0.001317,-0.000533,-1535.442749,-905.266967,-2010.773803,-2.97,2.32,1
0.07183,-0.392669,-9.893346,0.024086,0.000148,-0.002397,-1535.442749,-905.266967,-2010.773803,-2.97,2.32,1
0.081407,-0.383092,-9.888557,0.023553,-0.000385,-0.003995,-1535.442749,-905.266967,-2010.773803,-2.97,2.32,1
0.086196,-0.373515,-9.898135,0.025018,-0.001317,-0.003995,-1535.442749,-905.266967,-2010.773803,-2.97,2.33,1
0.086196,-0.373515,-9.898135,0.025018,-0.001317,-0.003995,-1535.442749,-905.266967,-2010.773803,-2.97,2.33,1
0.076618,-0.383092,-9.917289,0.026616,0.000148,-0.002131,-1537.433593,-906.171813,-2010.248413,-2.97,2.33,1
0.076618,-0.378303,-9.941232,0.027415,0.00108,-0.003862,-1537.433593,-906.171813,-2010.248413,-2.97,2.33,1
0.076618,-0.378303,-9.941232,0.027415,0.00108,-0.003862,-1537.433593,-906.171813,-2010.248413,-2.98,2.33,1
0.07183,-0.368726,-9.898135,0.026749,0.000947,-0.006924,-1537.433593,-906.171813,-2010.248413,-2.98,2.33,1
0.090984,-0.392669,-9.883769,0.027282,-0.000518,-0.009055,-1537.433593,-906.171813,-2010.248413,-2.98,2.34,1
0.07183,-0.383092,-9.902923,0.027415,0.000281,-0.005992,-1537.433593,-906.171813,-2010.248413,-2.98,2.34,1
0.07183,-0.383092,-9.902923,0.027415,0.000281,-0.005992,-1537.433593,-906.171813,-2010.248413,-2.98,2.34,1
0.076618,-0.373515,-9.888557,0.026616,-0.000252,-0.008922,-1537.433593,-906.171813,-2010.248413,-2.98,2.34,1
0.095773,-0.378303,-9.907711,0.027415,-0.000119,-0.010386,-1536.890625,-905.990844,-2011.474365,-2.98,2.34,1
0.095773,-0.378303,-9.907711,0.027415,-0.000119,-0.010386,-1536.890625,-905.990844,-2011.474365,-2.98,2.35,1
0.052675,-0.359149,-9.898135,0.026749,0.000281,-0.010386,-1536.890625,-905.990844,-2011.474365,-2.99,2.35,1
0.043098,-0.368726,-9.902923,0.029546,0.000015,-0.031559,-1536.890625,-905.990844,-2011.474365,-2.99,2.35,1
0.043098,-0.368726,-9.902923,0.029546,0.000015,-0.031559,-1536.890625,-905.990844,-2011.474365,-2.99,2.35,1
0.153237,-0.397458,-9.917289,0.027016,-0.000917,-0.042744,-1536.890625,-905.990844,-2011.474365,-2.99,2.35,1
0.119716,-0.397458,-9.893346,0.025018,-0.001051,-0.015447,-1536.890625,-905.990844,-2011.474365,-2.99,2.36,0.99
0.076618,-0.378303,-9.912501,0.024752,-0.000385,-0.001198,-1536.890625,-905.990844,-2011.474365,-2.99,2.36,1
0.076618,-0.378303,-9.912501,0.024752,-0.000385,-0.001198,-1536.890625,-905.990844,-2011.474365,-2.99,2.36,1
0.095773,-0.392669,-9.902923,0.029146,0.00108,0.000533,-1536.890625,-905.990844,-2011.474365,-3,2.36,1
0.090984,-0.397458,-9.926867,0.028613,0.000547,0,-1536.890625,-905.990844,-2010.773803,-3,2.36,1
0.090984,-0.397458,-9.926867,0.028613,0.000547,0,-1536.890625,-905.990844,-2010.773803,-3,2.37,1
0.10535,-0.378303,-9.912501,0.025551,0.000281,0.001731,-1536.890625,-905.990844,-2010.773803,-3,2.37,1
0.081407,-0.368726,-9.902923,0.025551,-0.001184,0.001198,-1536.890625,-905.990844,-2010.773803,-3,2.37,1
0.081407,-0.368726,-9.902923,0.025551,-0.001184,0.001198,-1536.890625,-905.990844,-2010.773803,-3,2.37,1
0.081407,-0.38788,-9.907711,0.02595,-0.000252,-0.000799,-1536.890625,-905.990844,-2010.773803,-3,2.37,1
0.095773,-0.373515,-9.917289,0.026749,-0.000518,-0.001731,-1536.890625,-905.990844,-2010.773803,-3.01,2.38,1
0.086196,-0.373515,-9.893346,0.025018,-0.000385,-0.001465,-1536.890625,-905.990844,-2010.773803,-3.01,2.38,1
0.086196,-0.373515,-9.893346,0.025018,-0.000385,-0.001465,-1536.890625,-905.990844,-2010.773803,-3.01,2.38,1
0.090984,-0.373515,-9.926867,0.025684,-0.000651,-0.001598,-1536.709594,-905.085937,-2010.598754,-3.01,2.38,1
0.090984,-0.38788,-9.926867,0.025817,0.000015,0,-1536.709594,-905.085937,-2010.598754,-3.01,2.38,1
0.090984,-0.38788,-9.926867,0.025817,0.000015,0,-1536.709594,-905.085937,-2010.598754,-3.01,2.38,1
0.086196,-0.378303,-9.907711,0.027415,0.000148,-0.000666,-1536.709594,-905.085937,-2010.598754,-3.01,2.39,1
0.081407,-0.378303,-9.902923,0.027814,-0.000119,0,-1536.709594,-905.085937,-2010.598754,-3.02,2.39,1
0.090984,-0.383092,-9.902923,0.027415,0.000281,-0.000932,-1536.709594,-905.085937,-2010.598754,-3.02,2.39,1
0.090984,-0.383092,-9.902923,0.027415,0.000281,-0.000932,-1536.709594,-905.085937,-2010.598754,-3.02,2.39,1
0.076618,-0.378303,-9.912501,0.026217,-0.001051,-0.001198,-1536.709594,-905.085937,-2010.598754,-3.02,2.39,1
0.100562,-0.38788,-9.893346,0.025018,-0.000518,-0.001198,-1535.804687,-906.714782,-2009.022583,-3.02,2.4,1
0.100562,-0.38788,-9.893346,0.025018,-0.000518,-0.001198,-1535.804687,-906.714782,-2009.022583,-3.02,2.4,1
0.081407,-0.378303,-9.917289,0.025151,0.000015,-0.000666,-1535.804687,-906.714782,-2009.022583,-3.02,2.4,1
0.076618,-0.359149,-9.902923,0.026616,-0.000518,-0.000266,-1535.804687,-906.714782,-2009.022583,-3.02,2.4,1
0.076618,-0.359149,-9.902923,0.026616,-0.000518,-0.000266,-1535.804687,-906.714782,-2009.022583,-3.03,2.4,1
0.090984,-0.378303,-9.917289,0.027814,0.000281,0.000666,-1535.804687,-906.714782,-2009.022583,-3.03,2.41,1
0.076618,-0.378303,-9.893346,0.027016,0.000814,-0.000266,-1535.804687,-906.714782,-2009.022583,-3.03,2.41,1
0.095773,-0.38788,-9.907711,0.027149,0.000547,-0.00293,-1535.804687,-906.714782,-2009.022583,-3.03,2.41,1
0.095773,-0.38788,-9.907711,0.027149,0.000547,-0.00293,-1535.804687,-906.714782,-2009.022583,-3.03,2.41,1
0.090984,-0.383092,-9.902923,0.026616,0.000414,-0.001598,-1536.528686,-905.628906,-2011.474365,-3.03,2.41,1
0.086196,-0.368726,-9.922078,0.025151,-0.000385,-0.000799,-1536.528686,-905.628906,-2011.474365,-3.03,2.42,1
0.086196,-0.368726,-9.922078,0.025151,-0.000385,-0.000799,-1536.528686,-905.628906,-2011.474365,-3.04,2.42,1
0.07183,-0.373515,-9.888557,0.025151,-0.000119,-0.000799,-1536.528686,-905.628906,-2011.474365,-3.04,2.42,1
0.067041,-0.368726,-9.907711,0.026749,0.000547,-0.001065,-1536.528686,-905.628906,-2011.474365,-3.04,2.42,1
0.076618,-0.383092,-9.893346,0.026749,0.001346,-0.001598,-1536.528686,-905.628906,-2011.474365,-3.04,2.42,1
0.076618,-0.383092,-9.893346,0.026749,0.001346,-0.001598,-1536.528686,-905.628906,-2011.474365,-3.04,2.42,1
0.100562,-0.373515,-9.87898,0.027282,0.000281,0,-1536.528686,-905.628906,-2011.474365,-3.04,2.43,1
0.095773,-0.368726,-9.902923,0.025684,0.000547,-0.000399,-1536.528686,-905.628906,-2011.474365,-3.04,2.43,1
0.095773,-0.368726,-9.902923,0.025684,0.000547,-0.000399,-1536.528686,-905.628906,-2011.474365,-3.04,2.43,1
0.07183,-0.363937,-9.941232,0.027016,0.00068,-0.000533,-1537.433593,-904.723999,-2011.299194,-3.05,2.43,1
0.086196,-0.383092,-9.893346,0.02635,0.000281,-0.001864,-1537.433593,-904.723999,-2011.299194,-3.05,2.43,1
0.086196,-0.383092,-9.893346,0.02635,0.000281,-0.001864,-1537.433593,-904.723999,-2011.299194,-3.05,2.44,1
0.086196,-0.383092,-9.902923,0.027016,0.000015,-0.002796,-1537.433593,-904.723999,-2011.299194,-3.05,2.44,1
0.086196,-0.383092,-9.893346,0.026882,-0.000651,-0.001198,-1537.433593,-904.723999,-2011.299194,-3.05,2.44,1
0.076618,-0.373515,-9.917289,0.026616,0.000547,-0.000533,-1537.433593,-904.723999,-2011.299194,-3.05,2.44,1
0.076618,-0.373515,-9.917289,0.026616,0.000547,-0.000533,-1537.433593,-904.723999,-2011.299194,-3.05,2.44,1.01
0.067041,-0.368726,-9.893346,0.026083,-0.000784,-0.001332,-1537.433593,-904.723999,-2011.299194,-3.06,2.45,1.01
0.095773,-0.373515,-9.931655,0.026083,-0.000784,-0.000533,-1537.071533,-905.809875,-2011.649414,-3.06,2.45,1.01
0.095773,-0.373515,-9.931655,0.026083,-0.000784,-0.000533,-1537.071533,-905.809875,-2011.649414,-3.06,2.45,1.01
0.076618,-0.373515,-9.902923,0.026749,-0.000385,-0.000666,-1537.071533,-905.809875,-2011.649414,-3.06,2.45,1.01
0.081407,-0.368726,-9.907711,0.026083,-0.000252,-0.000799,-1537.071533,-905.809875,-2011.649414,-3.06,2.45,1.01
0.086196,-0.368726,-9.917289,0.027149,-0.000119,-0.001065,-1537.071533,-905.809875,-2011.649414,-3.06,2.46,1.01
0.086196,-0.368726,-9.917289,0.027149,-0.000119,-0.001065,-1537.071533,-905.809875,-2011.649414,-3.06,2.46,1.01
0.076618,-0.378303,-9.902923,0.027149,0.000148,-0.001065,-1537.071533,-905.809875,-2011.649414,-3.06,2.46,1.01
0.086196,-0.378303,-9.922078,0.027415,0.000148,-0.001864,-1537.071533,-905.809875,-2011.649414,-3.07,2.46,1.01
0.086196,-0.378303,-9.922078,0.027415,0.000148,-0.001864,-1537.071533,-905.809875,-2011.649414,-3.07,2.46,1.01
0.090984,-0.383092,-9.917289,0.026083,-0.000784,-0.000666,-1536.890625,-907.43872,-2009.723022,-3.07,2.46,1.01
0.086196,-0.373515,-9.931655,0.024885,0.000015,-0.000399,-1536.890625,-907.43872,-2009.723022,-3.07,2.47,1.01
0.086196,-0.373515,-9.931655,0.024885,0.000015,-0.000399,-1536.890625,-907.43872,-2009.723022,-3.07,2.47,1.01
0.081407,-0.383092,-9.922078,0.025418,-0.000119,-0.001198,-1536.890625,-907.43872,-2009.723022,-3.07,2.47,1.01
0.090984,-0.383092,-9.907711,0.027282,-0.000119,0.000133,-1536.890625,-907.43872,-2009.723022,-3.07,2.47,1.01
0.076618,-0.373515,-9.907711,0.027814,-0.000385,-0.000533,-1536.890625,-907.43872,-2009.723022,-3.08,2.47,1.01
0.076618,-0.373515,-9.907711,0.027814,-0.000385,-0.000533,-1536.890625,-907.43872,-2009.723022,-3.08,2.48,1.01
0.090984,-0.363937,-9.888557,0.027548,0.000547,-0.000932,-1536.890625,-907.43872,-2009.723022,-3.08,2.48,1.01
0.086196,-0.373515,-9.898135,0.026749,0.000281,-0.000932,-1536.890625,-907.43872,-2009.723022,-3.08,2.48,1.01
0.086196,-0.373515,-9.898135,0.026749,0.000281,-0.000932,-1536.890625,-907.43872,-2009.723022,-3.08,2.48,1.01
0.081407,-0.383092,-9.922078,0.025817,-0.000119,-0.000133,-1537.795532,-906.533813,-2010.598754,-3.08,2.48,1.01
0.076618,-0.373515,-9.917289,0.025817,-0.000784,-0.000533,-1537.795532,-906.533813,-2010.598754,-3.08,2.49,1.01
0.081407,-0.368726,-9.907711,0.025684,-0.000784,-0.001198,-1537.795532,-906.533813,-2010.598754,-3.08,2.49,1.01
0.081407,-0.368726,-9.907711,0.025684,-0.000784,-0.001198,-1537.795532,-906.533813,-2010.598754,-3.09,2.49,1.01
0.086196,-0.373515,-9.912501,0.02635,-0.000784,-0.001332,-1537.795532,-906.533813,-2010.598754,-3.09,2.49,1.01
0.086196,-0.378303,-9.898135,0.027016,-0.000119,-0.000932,-1537.795532,-906.533813,-2010.598754,-3.09,2.49,1.01
0.086196,-0.378303,-9.898135,0.027016,-0.000119,-0.000932,-1537.795532,-906.533813,-2010.598754,-3.09,2.5,1.01
0.086196,-0.378303,-9.898135,0.026483,0.00108,-0.000399,-1537.795532,-906.533813,-2010.598754,-3.09,2.5,1.01
0.076618,-0.383092,-9.912501,0.026882,0.000015,-0.000266,-1535.08081,-906.352844,-2010.073364,-3.09,2.5,1.01
0.076618,-0.383092,-9.912501,0.026882,0.000015,-0.000266,-1535.08081,-906.352844,-2010.073364,-3.09,2.5,1.01
0.086196,-0.378303,-9.907711,0.026616,-0.000252,-0.000133,-1535.08081,-906.352844,-2010.073364,-3.09,2.5,1.01
0.086196,-0.373515,-9.912501,0.027681,0.000015,-0.001332,-1535.08081,-906.352844,-2010.073364,-3.1,2.5,1.01
0.067041,-0.383092,-9.902923,0.027415,-0.000651,-0.00253,-1535.08081,-906.352844,-2010.073364,-3.1,2.51,1.01
0.067041,-0.383092,-9.902923,0.027415,-0.000651,-0.00253,-1535.08081,-906.352844,-2010.073364,-3.1,2.51,1.01
0.086196,-0.378303,-9.888557,0.027282,0.000281,-0.001465,-1535.08081,-906.352844,-2010.073364,-3.1,2.51,1.01
0.076618,-0.378303,-9.902923,0.027149,-0.000385,0.000266,-1535.08081,-906.352844,-2010.073364,-3.1,2.51,1.01
0.076618,-0.378303,-9.902923,0.027149,-0.000385,0.000266,-1535.08081,-906.352844,-2010.073364,-3.1,2.51,1.01
0.086196,-0.368726,-9.917289,0.02595,0.000947,0.000266,-1537.252563,-906.352844,-2010.073364,-3.1,2.52,1.01
0.081407,-0.373515,-9.926867,0.027548,0.000015,-0.000799,-1537.252563,-906.352844,-2010.073364,-3.11,2.52,1.01
0.086196,-0.392669,-9.883769,0.026749,0.000814,-0.000799,-1537.252563,-906.352844,-2010.073364,-3.11,2.52,1.01
0.086196,-0.392669,-9.883769,0.026749,0.000814,-0.000799,-1537.252563,-906.352844,-2010.073364,-3.11,2.52,1.01
0.081407,-0.368726,-9.907711,0.02635,0.000281,0.000266,-1537.252563,-906.352844,-2010.073364,-3.11,2.52,1.01
0.086196,-0.378303,-9.902923,0.025418,0.000281,0.001065,-1537.252563,-906.352844,-2010.073364,-3.11,2.53,1.01
0.086196,-0.378303,-9.902923,0.025418,0.000281,0.001065,-1537.252563,-906.352844,-2010.073364,-3.11,2.53,1.01
0.095773,-0.373515,-9.902923,0.023553,-0.000119,0.000266,-1537.252563,-906.352844,-2010.073364,-3.11,2.53,1.02
0.090984,-0.368726,-9.902923,0.02635,-0.000119,-0.001465,-1536.347656,-906.171813,-2010.248413,-3.11,2.53,1.02
0.090984,-0.368726,-9.902923,0.02635,-0.000119,-0.001465,-1536.347656,-906.171813,-2010.248413,-3.12,2.53,1.02
0.090984,-0.383092,-9.902923,0.029146,-0.000252,-0.001465,-1536.347656,-906.171813,-2010.248413,-3.12,2.54,1.02
0.086196,-0.38788,-9.917289,0.028081,0.00068,-0.001465,-1536.347656,-906.171813,-2010.248413,-3.12,2.54,1.02
0.081407,-0.368726,-9.912501,0.026882,0.000814,-0.000666,-1536.347656,-906.171813,-2010.248413,-3.12,2.54,1.02
0.081407,-0.368726,-9.912501,0.026882,0.000814,-0.000666,-1536.347656,-906.171813,-2010.248413,-3.12,2.54,1.02
0.081407,-0.373515,-9.907711,0.026217,0.000547,0.000133,-1536.347656,-906.171813,-2010.248413,-3.12,2.54,1.02
0.100562,-0.392669,-9.902923,0.025284,0.000148,-0.001731,-1536.347656,-906.171813,-2010.248413,-3.12,2.54,1.02
0.100562,-0.392669,-9.902923,0.025284,0.000148,-0.001731,-1536.347656,-906.171813,-2010.248413,-3.12,2.55,1.02
0.090984,-0.378303,-9.917289,0.026217,-0.000518,-0.002264,-1536.347656,-906.171813,-2010.248413,-3.13,2.55,1.02
0.081407,-0.383092,-9.926867,0.025551,-0.000252,-0.001598,-1538.15747,-907.257751,-2010.248413,-3.13,2.55,1.02
0.090984,-0.38788,-9.912501,0.026217,-0.000784,-0.001332,-1538.15747,-907.257751,-2010.248413,-3.13,2.55,1.02
0.090984,-0.38788,-9.912501,0.026217,-0.000784,-0.001332,-1538.15747,-907.257751,-2010.248413,-3.13,2.55,1.02
0.100562,-0.397458,-9.883769,0.027016,-0.000252,-0.000133,-1538.15747,-907.257751,-2010.248413,-3.13,2.56,1.02
0.086196,-0.383092,-9.898135,0.027016,-0.000119,-0.000266,-1538.15747,-907.257751,-2010.248413,-3.13,2.56,1.02
0.086196,-0.383092,-9.898135,0.027016,-0.000119,-0.000266,-1538.15747,-907.257751,-2010.248413,-3.13,2.56,1.02
0.081407,-0.383092,-9.922078,0.025418,0.000148,-0.001598,-1538.15747,-907.257751,-2010.248413,-3.13,2.56,1.02
0.086196,-0.383092,-9.922078,0.02595,-0.000252,-0.003063,-1538.15747,-907.257751,-2010.248413,-3.14,2.56,1.02
0.086196,-0.383092,-9.922078,0.02595,-0.000252,-0.003063,-1538.15747,-907.257751,-2010.248413,-3.14,2.56,1.02
0.090984,-0.38788,-9.936444,0.025817,-0.000651,-0.000932,-1536.347656,-905.809875,-2010.948974,-3.14,2.57,1.02
0.076618,-0.368726,-9.898135,0.026217,-0.000917,0.000266,-1536.347656,-905.809875,-2010.948974,-3.14,2.57,1.02
0.081407,-0.363937,-9.902923,0.026217,-0.000119,-0.000266,-1536.347656,-905.809875,-2010.948974,-3.14,2.57,1.02
0.081407,-0.363937,-9.902923,0.026217,-0.000119,-0.000266,-1536.347656,-905.809875,-2010.948974,-3.14,2.57,1.02
0.086196,-0.368726,-9.907711,0.027948,-0.000385,-0.001465,-1536.347656,-905.809875,-2010.948974,-3.14,2.57,1.02
0.076618,-0.383092,-9.888557,0.027149,-0.000119,-0.002397,-1536.347656,-905.809875,-2010.948974,-3.14,2.58,1.02
0.076618,-0.383092,-9.888557,0.027149,-0.000119,-0.002397,-1536.347656,-905.809875,-2010.948974,-3.15,2.58,1.02
0.081407,-0.383092,-9.922078,0.026217,-0.001716,-0.000533,-1536.347656,-905.809875,-2010.948974,-3.15,2.58,1.02
0.081407,-0.363937,-9.926867,0.026083,-0.000784,0.000133,-1536.709594,-906.171813,-2010.948974,-3.15,2.58,1.02
0.095773,-0.378303,-9.936444,0.02595,0.000281,-0.001465,-1536.709594,-906.171813,-2010.948974,-3.15,2.58,1.02
0.095773,-0.378303,-9.936444,0.02595,0.000281,-0.001465,-1536.709594,-906.171813,-2010.948974,-3.15,2.59,1.02
0.086196,-0.383092,-9.917289,0.028214,0.000148,-0.000666,-1536.709594,-906.171813,-2010.948974,-3.15,2.59,1.02
0.086196,-0.378303,-9.898135,0.027282,-0.000518,-0.000266,-1536.709594,-906.171813,-2010.948974,-3.15,2.59,1.02
0.086196,-0.378303,-9.898135,0.027282,-0.000518,-0.000266,-1536.709594,-906.171813,-2010.948974,-3.15,2.59,1.02
0.076618,-0.383092,-9.888557,0.026882,-0.000119,0.000266,-1536.709594,-906.171813,-2010.948974,-3.16,2.59,1.02
0.076618,-0.373515,-9.893346,0.027681,-0.000385,0,-1536.709594,-906.171813,-2010.948974,-3.16,2.6,1.02
0.076618,-0.373515,-9.893346,0.027681,-0.000385,0,-1536.709594,-906.171813,-2010.948974,-3.16,2.6,1.02
0.07183,-0.378303,-9.898135,0.026083,0.000414,0.000266,-1536.709594,-906.171813,-2010.948974,-3.16,2.6,1.02
0.090984,-0.359149,-9.926867,0.027415,0.000281,-0.001198,-1537.252563,-906.714782,-2009.723022,-3.16,2.6,1.02
0.086196,-0.378303,-9.931655,0.027681,0.001479,-0.001198,-1537.252563,-906.714782,-2009.723022,-3.16,2.6,1.02
0.086196,-0.378303,-9.931655,0.027681,0.001479,-0.001198,-1537.252563,-906.714782,-2009.723022,-3.16,2.6,1.02
0.081407,-0.383092,-9.912501,0.026616,0.000547,-0.000932,-1537.252563,-906.714782,-2009.723022,-3.16,2.61,1.02
0.081407,-0.368726,-9.907711,0.027282,-0.000385,-0.000932,-1537.252563,-906.714782,-2009.723022,-3.17,2.61,1.02
0.081407,-0.368726,-9.907711,0.027282,-0.000385,-0.000932,-1537.252563,-906.714782,-2009.723022,-3.17,2.61,1.02
0.095773,-0.368726,-9.912501,0.027548,0.000015,-0.000266,-1537.252563,-906.714782,-2009.723022,-3.17,2.61,1.02
0.076618,-0.38788,-9.893346,0.027016,-0.000651,-0.001731,-1537.252563,-906.714782,-2009.723022,-3.17,2.61,1.02
0.086196,-0.363937,-9.974753,0.028214,-0.001051,-0.002131,-1537.614501,-905.266967,-2012.875366,-3.17,2.62,1.02
0.086196,-0.363937,-9.974753,0.028214,-0.001051,-0.002131,-1537.614501,-905.266967,-2012.875366,-3.17,2.62,1.02
0.081407,-0.392669,-9.902923,0.027149,-0.000385,-0.000932,-1537.614501,-905.266967,-2012.875366,-3.17,2.62,1.02
0.086196,-0.368726,-9.907711,0.025151,0.00068,-0.000266,-1537.614501,-905.266967,-2012.875366,-3.17,2.62,1.02
0.086196,-0.368726,-9.907711,0.025151,0.00068,-0.000266,-1537.614501,-905.266967,-2012.875366,-3.18,2.62,1.02
0.090984,-0.378303,-9.893346,0.024619,0.000015,-0.001997,-1537.614501,-905.266967,-2012.875366,-3.18,2.63,1.02
0.090984,-0.373515,-9.922078,0.024485,-0.000119,-0.003329,-1537.614501,-905.266967,-2012.875366,-3.18,2.63,1.02
0.090984,-0.373515,-9.922078,0.024485,-0.000119,-0.003329,-1537.614501,-905.266967,-2012.875366,-3.18,2.63,1.02
0.095773,-0.363937,-9.926867,0.02635,-0.000119,-0.001465,-1537.614501,-905.266967,-2012.875366,-3.18,2.63,1.02
0.095773,-0.38788,-9.931655,0.028347,-0.000385,0.000399,-1534.356933,-905.990844,-2009.723022,-3.18,2.63,1.03
0.086196,-0.378303,-9.946022,0.027149,-0.000784,0.001198,-1534.356933,-905.990844,-2009.723022,-3.18,2.63,1.03
0.086196,-0.378303,-9.946022,0.027149,-0.000784,0.001198,-1534.356933,-905.990844,-2009.723022,-3.18,2.64,1.03
0.095773,-0.38788,-9.907711,0.027681,-0.00145,0.000666,-1534.356933,-905.990844,-2009.723022,-3.19,2.64,1.03
0.081407,-0.378303,-9.907711,0.025684,-0.000252,0.002397,-1534.356933,-905.990844,-2009.723022,-3.19,2.64,1.03
0.081407,-0.378303,-9.907711,0.025684,-0.000252,0.002397,-1534.356933,-905.990844,-2009.723022,-3.19,2.64,1.03
0.07183,-0.378303,-9.898135,0.027548,0.000414,0.000266,-1534.356933,-905.990844,-2009.723022,-3.19,2.64,1.03
0.081407,-0.38788,-9.902923,0.027948,0.00068,-0.001465,-1534.356933,-905.990844,-2009.723022,-3.19,2.65,1.03
0.095773,-0.383092,-9.898135,0.027282,0.000281,-0.001332,-1538.3385,-906.714782,-2012.174804,-3.19,2.65,1.03
0.095773,-0.383092,-9.898135,0.027282,0.000281,-0.001332,-1538.3385,-906.714782,-2012.174804,-3.19,2.65,1.03
0.10535,-0.397458,-9.917289,0.026483,-0.000917,-0.000932,-1538.3385,-906.714782,-2012.174804,-3.19,2.65,1.03
0.076618,-0.368726,-9.917289,0.026616,-0.000385,0.001997,-1538.3385,-906.714782,-2012.174804,-3.2,2.65,1.03
0.076618,-0.368726,-9.917289,0.026616,-0.000385,0.001997,-1538.3385,-906.714782,-2012.174804,-3.2,2.66,1.03
0.081407,-0.383092,-9.912501,0.028747,-0.000119,0.001598,-1538.3385,-906.714782,-2012.174804,-3.2,2.66,1.03
