þAcclerometerX,AcclerometerY,AcclerometerZ,GyroscopeX,GyroscopeY,GyroscopeZ,MagnetometerX,MagnetometerY,MagnetometerZ,Roll,Pitch,Yaw
-9.572506,-0.387880,1.575465,0.000146,-0.000370,0.001166,22.622625,46.512115,-29.946205,30.707370
0.00,-0.00,-0.01 
-9.572506,-0.387880,1.575465,0.000146,-0.000370,0.001166,22.622625,46.512115,-29.946205,30.707370
0.00,-0.00,-0.01 
-9.567718,-0.387880,1.561099,0.000546,-0.000770,-0.001097,22.622625,46.512115,-29.946205,30.698387
-0.00,-0.01,-0.02 
-9.582084,-0.387880,1.561099,0.001878,0.000429,0.001033,22.622625,46.512115,-29.946205,30.695390
-0.00,-0.01,-0.03 
-9.567718,-0.378303,1.580254,0.000679,0.003625,0.004762,22.622625,46.512115,-29.946205,30.698387
-0.00,-0.02,-0.04 
-9.567718,-0.378303,1.580254,0.000679,0.003625,0.004762,22.622625,46.512115,-29.946205,30.698387
-0.01,-0.02,-0.04 
-9.577295,-0.387880,1.565888,-0.000253,0.004956,0.005960,21.355756,46.693096,-29.070585,30.692394
-0.01,-0.03,-0.05 
-9.562930,-0.387880,1.580254,0.001345,0.003358,0.002631,21.355756,46.693096,-29.070585,30.683410
-0.01,-0.03,-0.06 
-9.567718,-0.397458,1.551522,0.002011,-0.000104,0.000234,21.355756,46.693096,-29.070585,30.695390
-0.01,-0.03,-0.06 
-9.567718,-0.397458,1.551522,0.002011,-0.000104,0.000234,21.355756,46.693096,-29.070585,30.695390
-0.02,-0.04,-0.07 
-9.567718,-0.392669,1.570676,0.001478,-0.001169,0.004096,21.355756,46.693096,-29.070585,30.698387
-0.02,-0.04,-0.08 
-9.582084,-0.402246,1.556310,0.000546,0.002559,0.000501,21.355756,46.693096,-29.070585,30.701381
-0.02,-0.05,-0.09 
-9.582084,-0.402246,1.556310,0.000546,0.002559,0.000501,21.355756,46.693096,-29.070585,30.701381
-0.02,-0.05,-0.09 
-9.591661,-0.407035,1.551522,0.000546,0.003625,0.006360,21.355756,46.693096,-29.070585,30.698387
-0.03,-0.05,-0.10 
-9.558140,-0.383092,1.575465,0.001079,0.002692,0.004762,21.355756,46.693096,-29.070585,30.698387
-0.03,-0.06,-0.11 
-9.567718,-0.402246,1.541944,0.002144,0.000162,-0.002562,21.717720,45.969173,-30.121328,30.689399
-0.03,-0.06,-0.11 
-9.567718,-0.402246,1.541944,0.002144,0.000162,-0.002562,21.717720,45.969173,-30.121328,30.689399
-0.03,-0.07,-0.12 
-9.567718,-0.397458,1.565888,0.002810,-0.004498,-0.002695,21.717720,45.969173,-30.121328,30.695390
-0.04,-0.07,-0.13 
-9.572506,-0.421401,1.585042,0.002011,-0.001302,-0.004826,21.717720,45.969173,-30.121328,30.704376
-0.04,-0.07,-0.14 
-9.577295,-0.407035,1.575465,0.001212,0.001760,0.000501,21.717720,45.969173,-30.121328,30.707370
-0.04,-0.08,-0.14 
-9.577295,-0.407035,1.575465,0.001212,0.001760,0.000501,21.717720,45.969173,-30.121328,30.707370
-0.04,-0.08,-0.15 
-9.562930,-0.392669,1.551522,0.001079,0.001228,0.006093,21.717720,45.969173,-30.121328,30.701381
-0.05,-0.09,-0.16 
-9.558140,-0.387880,1.546733,0.000679,0.004690,0.003963,21.717720,45.969173,-30.121328,30.695390
-0.05,-0.09,-0.16 
-9.572506,-0.392669,1.541944,0.000413,0.004690,0.004096,21.174776,46.874076,-30.646699,30.695390
-0.05,-0.09,-0.17 
-9.572506,-0.392669,1.541944,0.000413,0.004690,0.004096,21.174776,46.874076,-30.646699,30.695390
-0.05,-0.10,-0.18 
-9.567718,-0.387880,1.551522,0.000812,0.001095,0.003830,21.174776,46.874076,-30.646699,30.695390
-0.06,-0.10,-0.18 
-9.553352,-0.407035,1.537156,0.001079,-0.000104,-0.001364,21.174776,46.874076,-30.646699,30.689399
-0.06,-0.11,-0.19 
-9.562930,-0.402246,1.565888,0.000945,-0.002501,-0.002828,21.174776,46.874076,-30.646699,30.698387
-0.06,-0.11,-0.20 
-9.562930,-0.402246,1.565888,0.000945,-0.002501,-0.002828,21.174776,46.874076,-30.646699,30.698387
-0.06,-0.12,-0.21 
-9.586873,-0.392669,1.604197,0.001611,0.000828,0.002232,21.174776,46.874076,-30.646699,30.698387
-0.07,-0.12,-0.21 
-9.577295,-0.421401,1.575465,0.001478,0.002559,-0.002163,21.174776,46.874076,-30.646699,30.704376
-0.07,-0.12,-0.22 
-9.567718,-0.392669,1.541944,0.000146,0.004024,0.010488,22.260662,46.874076,-29.946205,30.686405
-0.07,-0.13,-0.23 
-9.567718,-0.392669,1.541944,0.000146,0.004024,0.010488,22.260662,46.874076,-29.946205,30.686405
-0.07,-0.13,-0.23 
-9.582084,-0.402246,1.546733,0.001611,0.004157,0.003963,22.260662,46.874076,-29.946205,30.698387
-0.07,-0.14,-0.24 
-9.586873,-0.402246,1.565888,0.002677,0.001760,0.000234,22.260662,46.874076,-29.946205,30.695390
-0.08,-0.14,-0.25 
-9.586873,-0.402246,1.565888,0.002677,0.001760,0.000234,22.260662,46.874076,-29.946205,30.695390
-0.08,-0.14,-0.25 
-9.582084,-0.407035,1.580254,0.001744,0.003625,0.002498,22.260662,46.874076,-29.946205,30.686405
-0.08,-0.15,-0.26 
-9.582084,-0.421401,1.565888,0.000280,0.006687,0.003164,22.260662,46.874076,-29.946205,30.701381
-0.08,-0.15,-0.27 
-9.577295,-0.378303,1.541944,-0.000919,0.003491,0.014349,22.260662,46.874076,-29.946205,30.704376
-0.09,-0.16,-0.27 
-9.577295,-0.378303,1.541944,-0.000919,0.003491,0.014349,22.260662,46.874076,-29.946205,30.704376
-0.09,-0.16,-0.28 
-9.582084,-0.363937,1.575465,0.001345,-0.002234,0.000767,22.260662,46.874076,-29.946205,30.698387
-0.09,-0.17,-0.29 
-9.582084,-0.407035,1.565888,0.003875,-0.006096,-0.014813,22.803606,45.969173,-30.121328,30.698387
-0.09,-0.17,-0.30 
-9.567718,-0.402246,1.575465,0.001345,-0.005430,-0.005758,22.803606,45.969173,-30.121328,30.704376
-0.10,-0.17,-0.30 
-9.567718,-0.402246,1.575465,0.001345,-0.005430,-0.005758,22.803606,45.969173,-30.121328,30.704376
-0.10,-0.18,-0.31 
-9.567718,-0.411824,1.575465,0.000679,0.002826,0.002898,22.803606,45.969173,-30.121328,30.701381
-0.10,-0.18,-0.32 
-9.553352,-0.392669,1.551522,-0.000120,0.010016,0.013550,22.803606,45.969173,-30.121328,30.695390
-0.10,-0.19,-0.32 
-9.558140,-0.387880,1.565888,-0.000120,0.006155,0.011819,22.803606,45.969173,-30.121328,30.689399
-0.11,-0.19,-0.33 
-9.558140,-0.387880,1.565888,-0.000120,0.006155,0.011819,22.803606,45.969173,-30.121328,30.689399
-0.11,-0.19,-0.34 
-9.562930,-0.378303,1.556310,-0.000786,-0.002634,-0.000831,22.803606,45.969173,-30.121328,30.686405
-0.11,-0.20,-0.34 
-9.558140,-0.397458,1.532367,-0.001718,-0.008360,-0.015079,21.174776,46.150154,-28.545211,30.698387
-0.11,-0.20,-0.35 
-9.567718,-0.416612,1.580254,-0.003582,-0.008093,-0.012682,21.174776,46.150154,-28.545211,30.695390
-0.12,-0.21,-0.36 
-9.567718,-0.416612,1.580254,-0.003582,-0.008093,-0.012682,21.174776,46.150154,-28.545211,30.695390
-0.12,-0.21,-0.37 
-9.558140,-0.416612,1.561099,-0.003449,0.001760,-0.000565,21.174776,46.150154,-28.545211,30.698387
-0.12,-0.22,-0.38 
-9.586873,-0.402246,1.585042,-0.001052,0.008818,0.011686,21.174776,46.150154,-28.545211,30.695390
-0.12,-0.22,-0.38 
-9.586873,-0.378303,1.556310,-0.002517,0.010016,0.012219,21.174776,46.150154,-28.545211,30.698387
-0.13,-0.23,-0.39 
-9.586873,-0.378303,1.556310,-0.002517,0.010016,0.012219,21.174776,46.150154,-28.545211,30.698387
-0.13,-0.23,-0.40 
-9.567718,-0.411824,1.565888,-0.002384,0.005622,0.000234,21.174776,46.150154,-28.545211,30.701381
-0.13,-0.23,-0.40 
-9.567718,-0.383092,1.541944,0.000013,-0.004099,-0.005492,22.260662,45.064266,-29.595956,30.698387
-0.13,-0.24,-0.41 
-9.567718,-0.383092,1.541944,0.000013,-0.004099,-0.005492,22.260662,45.064266,-29.595956,30.698387
-0.13,-0.24,-0.42 
-9.562930,-0.407035,1.556310,0.002943,-0.011156,-0.013881,22.260662,45.064266,-29.595956,30.701381
-0.14,-0.25,-0.43 
-9.567718,-0.411824,1.599408,0.001478,-0.010357,-0.013348,22.260662,45.064266,-29.595956,30.701381
-0.14,-0.25,-0.43 
-9.548563,-0.430978,1.594620,-0.000786,0.001627,-0.002695,22.260662,45.064266,-29.595956,30.689399
-0.14,-0.25,-0.44 
-9.548563,-0.430978,1.594620,-0.000786,0.001627,-0.002695,22.260662,45.064266,-29.595956,30.689399
-0.15,-0.26,-0.45 
-9.572506,-0.416612,1.589831,-0.005846,0.022666,0.016879,22.260662,45.064266,-29.595956,30.683410
-0.15,-0.26,-0.45 
-9.582084,-0.387880,1.561099,-0.006112,0.031855,0.045376,22.260662,45.064266,-29.595956,30.689399
-0.15,-0.27,-0.46 
-9.601239,-0.339994,1.565888,-0.007444,0.015742,0.038185,22.803606,46.331134,-30.121328,30.689399
-0.15,-0.27,-0.46 
-9.601239,-0.339994,1.565888,-0.007444,0.015742,0.038185,22.803606,46.331134,-30.121328,30.689399
-0.15,-0.28,-0.47 
-9.562930,-0.387880,1.551522,-0.008908,0.001361,-0.024267,22.803606,46.331134,-30.121328,30.701381
-0.15,-0.28,-0.48 
-9.558140,-0.430978,1.575465,-0.003183,-0.012887,-0.026797,22.803606,46.331134,-30.121328,30.695390
-0.16,-0.29,-0.49 
-9.572506,-0.426190,1.599408,-0.004514,-0.004232,-0.004160,22.803606,46.331134,-30.121328,30.695390
-0.16,-0.29,-0.49 
-9.572506,-0.426190,1.599408,-0.004514,-0.004232,-0.004160,22.803606,46.331134,-30.121328,30.695390
-0.16,-0.30,-0.50 
-9.558140,-0.416612,1.551522,-0.005713,0.023066,0.020475,22.803606,46.331134,-30.121328,30.707370
-0.16,-0.30,-0.51 
-9.577295,-0.387880,1.537156,-0.008243,0.035716,0.047373,22.803606,46.331134,-30.121328,30.692394
-0.16,-0.30,-0.51 
-9.591661,-0.368726,1.513213,-0.005579,0.031322,0.048438,22.803606,46.331134,-30.121328,30.692394
-0.16,-0.31,-0.52 
-9.591661,-0.368726,1.513213,-0.005579,0.031322,0.048438,22.803606,46.331134,-30.121328,30.692394
-0.16,-0.31,-0.52 
-9.596450,-0.330417,1.503635,-0.001185,0.008152,0.019809,22.079681,45.607212,-29.070585,30.695390
-0.17,-0.32,-0.53 
-9.591661,-0.373515,1.546733,0.004541,-0.014618,-0.036784,22.079681,45.607212,-29.070585,30.701381
-0.17,-0.32,-0.54 
-9.553352,-0.430978,1.546733,0.003609,-0.014485,-0.041178,22.079681,45.607212,-29.070585,30.692394
-0.17,-0.33,-0.55 
-9.553352,-0.430978,1.546733,0.003609,-0.014485,-0.041178,22.079681,45.607212,-29.070585,30.692394
-0.18,-0.33,-0.56 
-9.553352,-0.411824,1.556310,0.001744,-0.010757,0.000900,22.079681,45.607212,-29.070585,30.689399
-0.18,-0.33,-0.56 
-9.567718,-0.392669,1.580254,-0.008376,0.002826,0.012751,22.079681,45.607212,-29.070585,30.692394
-0.18,-0.34,-0.57 
-9.567718,-0.392669,1.580254,-0.008376,0.002826,0.012751,22.079681,45.607212,-29.070585,30.692394
-0.18,-0.34,-0.58 
-9.567718,-0.387880,1.556310,-0.010639,0.012946,0.014482,22.079681,45.607212,-29.070585,30.680414
-0.19,-0.35,-0.58 
-9.596450,-0.354360,1.503635,-0.011572,-0.001968,0.009156,20.993795,45.969173,-29.420833,30.683410
-0.19,-0.35,-0.59 
-9.582084,-0.383092,1.556310,-0.010906,-0.020078,-0.032257,20.993795,45.969173,-29.420833,30.695390
-0.19,-0.36,-0.60 
-9.582084,-0.383092,1.556310,-0.010906,-0.020078,-0.032257,20.993795,45.969173,-29.420833,30.695390
-0.20,-0.36,-0.61 
-9.553352,-0.430978,1.551522,-0.005446,-0.018080,-0.036518,20.993795,45.969173,-29.420833,30.692394
-0.20,-0.37,-0.62 
-9.567718,-0.397458,1.565888,-0.005713,-0.006895,-0.006024,20.993795,45.969173,-29.420833,30.689399
-0.20,-0.37,-0.62 
-9.567718,-0.378303,1.575465,-0.001851,0.001228,0.004762,20.993795,45.969173,-29.420833,30.683410
-0.20,-0.38,-0.63 
-9.567718,-0.378303,1.575465,-0.001851,0.001228,0.004762,20.993795,45.969173,-29.420833,30.683410
-0.21,-0.38,-0.64 
-9.577295,-0.426190,1.527578,0.000945,0.001760,-0.004293,20.993795,45.969173,-29.420833,30.680414
-0.21,-0.39,-0.64 
-9.572506,-0.392669,1.541944,0.003475,-0.011023,-0.006157,21.355756,47.417018,-29.771080,30.683410
-0.21,-0.39,-0.65 
-9.548563,-0.430978,1.575465,0.000413,-0.000237,-0.016144,21.355756,47.417018,-29.771080,30.686405
-0.21,-0.39,-0.66 
-9.548563,-0.430978,1.575465,0.000413,-0.000237,-0.016144,21.355756,47.417018,-29.771080,30.686405
-0.22,-0.40,-0.67 
-9.562930,-0.440556,1.561099,-0.003049,0.016541,0.018477,21.355756,47.417018,-29.771080,30.692394
-0.22,-0.40,-0.67 
-9.577295,-0.383092,1.541944,-0.005979,0.023998,0.044177,21.355756,47.417018,-29.771080,30.680414
-0.22,-0.41,-0.68 
-9.562930,-0.402246,1.541944,-0.003049,0.022800,0.023937,21.355756,47.417018,-29.771080,30.677419
-0.22,-0.41,-0.68 
-9.562930,-0.402246,1.541944,-0.003049,0.022800,0.023937,21.355756,47.417018,-29.771080,30.677419
-0.22,-0.42,-0.69 
-9.586873,-0.387880,1.541944,-0.002916,0.014943,0.013684,21.355756,47.417018,-29.771080,30.677419
-0.22,-0.42,-0.70 
-9.582084,-0.387880,1.522790,0.002011,-0.001435,-0.002562,20.450853,44.702304,-29.595956,30.680414
-0.23,-0.42,-0.70 
-9.558140,-0.392669,1.541944,0.005606,-0.015417,-0.020938,20.450853,44.702304,-29.595956,30.671428
-0.23,-0.43,-0.71 
-9.558140,-0.392669,1.541944,0.005606,-0.015417,-0.020938,20.450853,44.702304,-29.595956,30.671428
-0.23,-0.43,-0.72 
-9.553352,-0.435767,1.541944,0.001611,-0.004764,-0.020139,20.450853,44.702304,-29.595956,30.686405
-0.24,-0.44,-0.73 
-9.567718,-0.402246,1.551522,0.002011,-0.004898,0.010355,20.450853,44.702304,-29.595956,30.683410
-0.24,-0.44,-0.74 
-9.567718,-0.402246,1.551522,0.002011,-0.004898,0.010355,20.450853,44.702304,-29.595956,30.683410
-0.24,-0.44,-0.74 
-9.572506,-0.383092,1.565888,0.002543,-0.007428,0.006493,20.450853,44.702304,-29.595956,30.683410
-0.25,-0.45,-0.75 
-9.553352,-0.421401,1.537156,0.000679,0.002293,-0.011084,20.450853,44.702304,-29.595956,30.677419
-0.25,-0.45,-0.76 
-9.572506,-0.411824,1.575465,0.002677,0.003092,0.008224,20.450853,44.702304,-29.595956,30.680414
-0.25,-0.46,-0.76 
-9.572506,-0.411824,1.575465,0.002677,0.003092,0.008224,20.450853,44.702304,-29.595956,30.680414
-0.25,-0.46,-0.77 
-9.577295,-0.397458,1.522790,-0.000786,0.010283,0.014083,21.174776,45.064266,-28.895460,30.683410
-0.25,-0.47,-0.78 
-9.577295,-0.411824,1.527578,0.001345,0.002559,0.003563,21.174776,45.064266,-28.895460,30.689399
-0.26,-0.47,-0.78 
-9.567718,-0.407035,1.537156,0.003209,-0.003566,-0.000165,21.174776,45.064266,-28.895460,30.689399
-0.26,-0.47,-0.79 
-9.567718,-0.407035,1.537156,0.003209,-0.003566,-0.000165,21.174776,45.064266,-28.895460,30.689399
-0.26,-0.48,-0.80 
-9.582084,-0.387880,1.556310,0.004141,-0.007694,-0.010951,21.174776,45.064266,-28.895460,30.686405
-0.27,-0.48,-0.81 
-9.582084,-0.416612,1.594620,0.002011,-0.007028,-0.017076,21.174776,45.064266,-28.895460,30.680414
-0.27,-0.49,-0.81 
-9.572506,-0.416612,1.556310,0.000812,-0.003433,-0.006690,21.174776,45.064266,-28.895460,30.683410
-0.27,-0.49,-0.82 
-9.572506,-0.416612,1.556310,0.000812,-0.003433,-0.006690,21.174776,45.064266,-28.895460,30.683410
-0.27,-0.50,-0.83 
-9.586873,-0.411824,1.537156,0.002277,-0.001569,0.013284,21.355756,45.969173,-28.720336,30.683410
-0.28,-0.50,-0.83 
-9.558140,-0.411824,1.561099,0.000546,0.006554,0.000501,21.355756,45.969173,-28.720336,30.671428
-0.28,-0.50,-0.84 
-9.577295,-0.430978,1.537156,-0.000519,0.006021,0.004495,21.355756,45.969173,-28.720336,30.686405
-0.28,-0.51,-0.85 
-9.577295,-0.430978,1.537156,-0.000519,0.006021,0.004495,21.355756,45.969173,-28.720336,30.686405
-0.28,-0.51,-0.86 
-9.562930,-0.373515,1.532367,-0.002117,0.000695,0.009422,21.355756,45.969173,-28.720336,30.692394
-0.29,-0.52,-0.86 
-9.582084,-0.397458,1.522790,0.002277,-0.010091,-0.012549,21.355756,45.969173,-28.720336,30.689399
-0.29,-0.52,-0.87 
-9.562930,-0.402246,1.570676,0.005207,-0.019545,-0.026531,21.355756,45.969173,-28.720336,30.686405
-0.29,-0.52,-0.88 
-9.562930,-0.402246,1.570676,0.005207,-0.019545,-0.026531,21.355756,45.969173,-28.720336,30.686405
-0.30,-0.53,-0.89 
-9.558140,-0.440556,1.585042,0.004141,-0.015284,-0.024933,21.174776,45.064266,-29.946205,30.674423
-0.30,-0.53,-0.90 
-9.567718,-0.426190,1.589831,-0.000120,0.001760,0.004762,21.174776,45.064266,-29.946205,30.674423
-0.30,-0.54,-0.90 
-9.572506,-0.421401,1.556310,-0.003316,0.015210,0.025801,21.174776,45.064266,-29.946205,30.686405
-0.30,-0.54,-0.91 
-9.572506,-0.421401,1.556310,-0.003316,0.015210,0.025801,21.174776,45.064266,-29.946205,30.686405
-0.30,-0.55,-0.91 
-9.577295,-0.402246,1.561099,-0.002250,0.013212,0.019276,21.174776,45.064266,-29.946205,30.689399
-0.31,-0.55,-0.92 
-9.582084,-0.397458,1.556310,-0.000120,-0.003832,-0.005625,21.174776,45.064266,-29.946205,30.683410
-0.31,-0.55,-0.93 
-9.582084,-0.397458,1.556310,-0.000120,-0.003832,-0.005625,21.174776,45.064266,-29.946205,30.683410
-0.31,-0.56,-0.94 
-9.572506,-0.411824,1.580254,-0.001451,-0.018480,-0.028661,21.174776,45.064266,-29.946205,30.680414
-0.32,-0.56,-0.94 
-9.558140,-0.440556,1.551522,-0.001318,-0.014352,-0.025332,21.174776,45.064266,-29.946205,30.683410
-0.32,-0.57,-0.95 
-9.558140,-0.450133,1.556310,-0.001185,-0.002634,-0.002562,21.717720,46.693096,-29.070585,30.677419
-0.32,-0.57,-0.96 
-9.558140,-0.450133,1.556310,-0.001185,-0.002634,-0.002562,21.717720,46.693096,-29.070585,30.677419
-0.32,-0.58,-0.97 
-9.567718,-0.416612,1.561099,-0.001318,0.008951,0.021140,21.717720,46.693096,-29.070585,30.680414
-0.33,-0.58,-0.97 
-9.577295,-0.411824,1.546733,-0.001052,0.012946,0.019942,21.717720,46.693096,-29.070585,30.680414
-0.33,-0.59,-0.98 
-9.577295,-0.397458,1.575465,0.000945,0.002692,0.003430,21.717720,46.693096,-29.070585,30.686405
-0.33,-0.59,-0.99 
-9.577295,-0.397458,1.575465,0.000945,0.002692,0.003430,21.717720,46.693096,-29.070585,30.686405
-0.33,-0.59,-0.99 
-9.558140,-0.426190,1.585042,0.002677,-0.008759,-0.012016,21.717720,46.693096,-29.070585,30.689399
-0.34,-0.60,-1.00 
-9.562930,-0.435767,1.580254,0.003342,-0.007161,-0.015878,21.717720,46.693096,-29.070585,30.683410
-0.34,-0.60,-1.01 
-9.577295,-0.421401,1.541944,0.002543,-0.000770,0.004362,21.174776,45.426231,-30.296453,30.689399
-0.34,-0.61,-1.02 
-9.577295,-0.421401,1.541944,0.002543,-0.000770,0.004362,21.174776,45.426231,-30.296453,30.689399
-0.34,-0.61,-1.02 
-9.572506,-0.402246,1.541944,0.001744,0.005489,0.014882,21.174776,45.426231,-30.296453,30.686405
-0.35,-0.61,-1.03 
-9.567718,-0.426190,1.565888,0.000945,0.006155,0.008490,21.174776,45.426231,-30.296453,30.677419
-0.35,-0.62,-1.04 
-9.558140,-0.426190,1.565888,0.002677,0.002027,-0.000698,21.174776,45.426231,-30.296453,30.686405
-0.35,-0.62,-1.04 
-9.558140,-0.426190,1.565888,0.002677,0.002027,-0.000698,21.174776,45.426231,-30.296453,30.686405
-0.35,-0.63,-1.05 
-9.572506,-0.416612,1.594620,0.003209,-0.004498,-0.004426,21.174776,45.426231,-30.296453,30.683410
-0.36,-0.63,-1.06 
-9.567718,-0.421401,1.570676,0.002810,-0.003167,-0.009087,21.174776,45.426231,-30.296453,30.689399
-0.36,-0.64,-1.07 
-9.572506,-0.435767,1.551522,0.002277,-0.002767,-0.005225,22.079681,46.693096,-28.370088,30.707370
-0.36,-0.64,-1.07 
-9.572506,-0.435767,1.551522,0.002277,-0.002767,-0.005225,22.079681,46.693096,-28.370088,30.707370
-0.36,-0.64,-1.08 
-9.577295,-0.426190,1.556310,0.002277,-0.003300,0.001699,22.079681,46.693096,-28.370088,30.686405
-0.37,-0.65,-1.09 
-9.567718,-0.435767,1.541944,0.002144,-0.002900,-0.005758,22.079681,46.693096,-28.370088,30.695390
-0.37,-0.65,-1.10 
-9.567718,-0.445344,1.551522,0.002810,-0.005164,-0.007622,22.079681,46.693096,-28.370088,30.698387
-0.37,-0.66,-1.10 
-9.567718,-0.445344,1.551522,0.002810,-0.005164,-0.007622,22.079681,46.693096,-28.370088,30.698387
-0.37,-0.66,-1.11 
-9.558140,-0.416612,1.589831,0.002543,-0.005031,-0.003760,22.079681,46.693096,-28.370088,30.689399
-0.38,-0.66,-1.12 
-9.558140,-0.445344,1.570676,0.001611,0.000296,-0.000298,22.079681,46.693096,-28.370088,30.695390
-0.38,-0.67,-1.13 
-9.558140,-0.445344,1.570676,0.001611,0.000296,-0.000298,22.079681,46.693096,-28.370088,30.695390
-0.38,-0.67,-1.13 
-9.582084,-0.426190,1.565888,0.001212,0.004157,0.005960,22.260662,46.512115,-30.296453,30.686405
-0.38,-0.68,-1.14 
-9.567718,-0.416612,1.551522,0.000812,0.004557,0.008623,22.260662,46.512115,-30.296453,30.683410
-0.39,-0.68,-1.15 
-9.558140,-0.421401,1.575465,0.001744,0.001627,0.000501,22.260662,46.512115,-30.296453,30.680414
-0.39,-0.68,-1.15 
-9.558140,-0.421401,1.575465,0.001744,0.001627,0.000501,22.260662,46.512115,-30.296453,30.680414
-0.39,-0.69,-1.16 
-9.572506,-0.430978,1.575465,0.001878,-0.000637,-0.001364,22.260662,46.512115,-30.296453,30.689399
-0.39,-0.69,-1.17 
-9.562930,-0.421401,1.565888,0.001744,-0.001036,-0.001497,22.260662,46.512115,-30.296453,30.692394
-0.40,-0.70,-1.18 
-9.562930,-0.430978,1.594620,0.002410,-0.000770,-0.003894,22.260662,46.512115,-30.296453,30.692394
-0.40,-0.70,-1.18 
-9.562930,-0.430978,1.594620,0.002410,-0.000770,-0.003894,22.260662,46.512115,-30.296453,30.692394
-0.40,-0.71,-1.19 
-9.567718,-0.426190,1.575465,0.002144,0.000828,-0.000032,22.260662,46.512115,-30.296453,30.677419
-0.40,-0.71,-1.20 
-9.548563,-0.430978,1.575465,0.001611,0.002027,0.003164,20.812814,43.978382,-29.946205,30.689399
-0.41,-0.71,-1.20 
-9.567718,-0.426190,1.570676,0.001611,0.002027,0.003830,20.812814,43.978382,-29.946205,30.692394
-0.41,-0.72,-1.21 
-9.567718,-0.426190,1.570676,0.001611,0.002027,0.003830,20.812814,43.978382,-29.946205,30.692394
-0.41,-0.72,-1.22 
-9.572506,-0.430978,1.585042,0.000945,0.001361,0.003297,20.812814,43.978382,-29.946205,30.686405
-0.41,-0.73,-1.22 
-9.558140,-0.426190,1.565888,0.002011,-0.000637,-0.000032,20.812814,43.978382,-29.946205,30.686405
-0.42,-0.73,-1.23 
-9.572506,-0.430978,1.585042,0.001878,-0.002234,-0.001230,20.812814,43.978382,-29.946205,30.677419
-0.42,-0.74,-1.24 
-9.572506,-0.430978,1.585042,0.001878,-0.002234,-0.001230,20.812814,43.978382,-29.946205,30.677419
-0.42,-0.74,-1.25 
-9.567718,-0.445344,1.575465,0.002277,-0.002234,-0.001896,20.812814,43.978382,-29.946205,30.695390
-0.43,-0.74,-1.25 
-9.582084,-0.426190,1.580254,0.000812,-0.000770,-0.000032,20.450853,46.512115,-28.194965,30.692394
-0.43,-0.75,-1.26 
-9.586873,-0.426190,1.561099,0.001079,0.000695,0.001566,20.450853,46.512115,-28.194965,30.701381
-0.43,-0.75,-1.27 
-9.586873,-0.426190,1.561099,0.001079,0.000695,0.001566,20.450853,46.512115,-28.194965,30.701381
-0.43,-0.76,-1.27 
-9.567718,-0.421401,1.565888,0.001212,0.001760,0.001433,20.450853,46.512115,-28.194965,30.689399
-0.44,-0.76,-1.28 
-9.591661,-0.426190,1.594620,0.001212,0.000429,0.001699,20.450853,46.512115,-28.194965,30.692394
-0.44,-0.77,-1.29 
-9.562930,-0.435767,1.570676,0.001744,-0.000237,-0.000298,20.450853,46.512115,-28.194965,30.698387
-0.44,-0.77,-1.30 
-9.562930,-0.435767,1.570676,0.001744,-0.000237,-0.000298,20.450853,46.512115,-28.194965,30.698387
-0.44,-0.77,-1.30 
-9.567718,-0.440556,1.594620,0.000945,0.000961,-0.000964,20.450853,46.512115,-28.194965,30.689399
-0.45,-0.78,-1.31 
-9.558140,-0.435767,1.565888,0.002144,0.000695,0.001433,21.174776,46.874076,-29.595956,30.683410
-0.45,-0.78,-1.32 
-9.558140,-0.435767,1.565888,0.002144,0.000695,0.001433,21.174776,46.874076,-29.595956,30.683410
-0.45,-0.79,-1.32 
-9.562930,-0.435767,1.570676,0.002277,0.000562,-0.000431,21.174776,46.874076,-29.595956,30.707370
-0.45,-0.79,-1.33 
-9.591661,-0.435767,1.599408,0.003609,0.001494,0.000501,21.174776,46.874076,-29.595956,30.701381
-0.46,-0.79,-1.34 
-9.548563,-0.445344,1.565888,0.003076,0.000429,-0.004160,21.174776,46.874076,-29.595956,30.680414
-0.46,-0.80,-1.35 
-9.548563,-0.445344,1.565888,0.003076,0.000429,-0.004160,21.174776,46.874076,-29.595956,30.680414
-0.46,-0.80,-1.35 
-9.567718,-0.426190,1.561099,0.002410,-0.001569,0.001965,21.174776,46.874076,-29.595956,30.698387
-0.46,-0.81,-1.36 
-9.577295,-0.440556,1.575465,0.001478,0.000429,0.001166,21.174776,46.874076,-29.595956,30.704376
-0.47,-0.81,-1.37 
-9.562930,-0.450133,1.565888,0.002144,0.002559,0.001965,21.174776,46.874076,-29.595956,30.683410
-0.47,-0.82,-1.38 
-9.562930,-0.450133,1.565888,0.002144,0.002559,0.001965,21.174776,46.874076,-29.595956,30.683410
-0.47,-0.82,-1.38 
-9.558140,-0.411824,1.565888,0.002144,0.001494,0.007958,23.165567,46.331134,-29.771080,30.689399
-0.47,-0.82,-1.39 
-9.572506,-0.440556,1.532367,0.003875,0.004690,0.001433,23.165567,46.331134,-29.771080,30.695390
-0.48,-0.83,-1.40 
-9.553352,-0.445344,1.551522,0.003875,-0.000370,-0.014946,23.165567,46.331134,-29.771080,30.692394
-0.48,-0.83,-1.40 
-9.553352,-0.445344,1.551522,0.003875,-0.000370,-0.014946,23.165567,46.331134,-29.771080,30.692394
-0.48,-0.84,-1.41 
-9.577295,-0.416612,1.613774,0.005073,-0.011689,0.004495,23.165567,46.331134,-29.771080,30.692394
-0.48,-0.84,-1.42 
-9.558140,-0.459710,1.623351,0.001611,0.002426,-0.009220,23.165567,46.331134,-29.771080,30.692394
-0.49,-0.84,-1.43 
-9.562930,-0.445344,1.575465,-0.000120,0.006820,0.008623,23.165567,46.331134,-29.771080,30.698387
-0.49,-0.85,-1.43 
-9.562930,-0.445344,1.575465,-0.000120,0.006820,0.008623,23.165567,46.331134,-29.771080,30.698387
-0.49,-0.85,-1.44 
-9.562930,-0.416612,1.537156,-0.000386,0.007353,0.015947,21.898700,46.150154,-29.595956,30.683410
-0.49,-0.86,-1.45 
-9.577295,-0.445344,1.565888,-0.000253,0.007353,0.001033,21.898700,46.150154,-29.595956,30.701381
-0.49,-0.86,-1.45 
-9.577295,-0.426190,1.570676,0.001878,-0.003566,0.002232,21.898700,46.150154,-29.595956,30.698387
-0.50,-0.87,-1.46 
-9.577295,-0.426190,1.570676,0.001878,-0.003566,0.002232,21.898700,46.150154,-29.595956,30.698387
-0.50,-0.87,-1.47 
-9.558140,-0.435767,1.565888,0.002543,-0.006096,-0.005891,21.898700,46.150154,-29.595956,30.701381
-0.50,-0.87,-1.48 
-9.553352,-0.435767,1.575465,0.002543,-0.005031,-0.008155,21.898700,46.150154,-29.595956,30.680414
-0.51,-0.88,-1.48 
-9.543775,-0.421401,1.604197,0.000280,0.001760,0.004362,21.898700,46.150154,-29.595956,30.698387
-0.51,-0.88,-1.49 
-9.543775,-0.421401,1.604197,0.000280,0.001760,0.004362,21.898700,46.150154,-29.595956,30.698387
-0.51,-0.89,-1.50 
-9.558140,-0.450133,1.551522,-0.001718,0.011481,0.011819,20.812814,46.150154,-30.646699,30.692394
-0.51,-0.89,-1.50 
-9.572506,-0.421401,1.570676,-0.000120,0.009750,0.018078,20.812814,46.150154,-30.646699,30.692394
-0.51,-0.90,-1.51 
-9.572506,-0.421401,1.570676,-0.000120,0.009750,0.018078,20.812814,46.150154,-30.646699,30.692394
-0.52,-0.90,-1.52 
-9.582084,-0.426190,1.575465,0.001478,0.002293,0.002764,20.812814,46.150154,-30.646699,30.701381
-0.52,-0.90,-1.52 
-9.577295,-0.435767,1.570676,0.002543,-0.005297,-0.008687,20.812814,46.150154,-30.646699,30.683410
-0.52,-0.91,-1.53 
-9.562930,-0.440556,1.589831,0.003475,-0.009159,-0.012682,20.812814,46.150154,-30.646699,30.698387
-0.53,-0.91,-1.54 
-9.562930,-0.440556,1.589831,0.003475,-0.009159,-0.012682,20.812814,46.150154,-30.646699,30.698387
-0.53,-0.92,-1.55 
-9.558140,-0.450133,1.608985,0.003742,-0.004498,-0.008687,20.812814,46.150154,-30.646699,30.701381
-0.53,-0.92,-1.55 
-9.567718,-0.430978,1.589831,0.001611,0.007619,0.008757,22.079681,45.607212,-30.471576,30.698387
-0.53,-0.93,-1.56 
-9.567718,-0.430978,1.585042,-0.001052,0.014677,0.020342,22.079681,45.607212,-30.471576,30.695390
-0.54,-0.93,-1.57 
-9.567718,-0.430978,1.585042,-0.001052,0.014677,0.020342,22.079681,45.607212,-30.471576,30.695390
-0.54,-0.94,-1.57 
-9.577295,-0.411824,1.537156,-0.001585,0.010549,0.016214,22.079681,45.607212,-30.471576,30.692394
-0.54,-0.94,-1.58 
-9.567718,-0.430978,1.551522,0.001478,-0.001702,-0.001630,22.079681,45.607212,-30.471576,30.701381
-0.54,-0.94,-1.58 
-9.567718,-0.445344,1.580254,0.004541,-0.010757,-0.013348,22.079681,45.607212,-30.471576,30.713361
-0.54,-0.95,-1.59 
-9.567718,-0.445344,1.580254,0.004541,-0.010757,-0.013348,22.079681,45.607212,-30.471576,30.713361
-0.55,-0.95,-1.60 
-9.543775,-0.445344,1.594620,0.003342,-0.006496,-0.012682,22.079681,45.607212,-30.471576,30.698387
-0.55,-0.96,-1.61 
-9.558140,-0.450133,1.618563,0.001878,0.000695,-0.000165,22.079681,45.607212,-30.471576,30.704376
-0.55,-0.96,-1.62 
-9.572506,-0.440556,1.570676,-0.000120,0.007486,0.013018,21.355756,47.417018,-30.471576,30.701381
-0.56,-0.97,-1.62 
-9.572506,-0.440556,1.570676,-0.000120,0.007486,0.013018,21.355756,47.417018,-30.471576,30.701381
-0.56,-0.97,-1.63 
-9.572506,-0.426190,1.537156,-0.000652,0.007886,0.010754,21.355756,47.417018,-30.471576,30.704376
-0.56,-0.97,-1.63 
-9.562930,-0.445344,1.556310,0.001611,-0.000503,0.001965,21.355756,47.417018,-30.471576,30.707370
-0.56,-0.98,-1.64 
-9.562930,-0.440556,1.575465,0.003475,-0.004898,-0.006024,21.355756,47.417018,-30.471576,30.695390
-0.57,-0.98,-1.65 
-9.562930,-0.440556,1.575465,0.003475,-0.004898,-0.006024,21.355756,47.417018,-30.471576,30.695390
-0.57,-0.99,-1.66 
-9.548563,-0.454922,1.575465,0.002810,-0.003033,-0.004959,21.355756,47.417018,-30.471576,30.695390
-0.57,-0.99,-1.66 
-9.567718,-0.454922,1.594620,0.000679,0.001894,0.002764,21.355756,47.417018,-30.471576,30.695390
-0.57,-1.00,-1.67 
-9.567718,-0.430978,1.551522,-0.000519,0.006021,0.007691,22.441642,45.245250,-30.471576,30.689399
-0.58,-1.00,-1.68 
-9.567718,-0.430978,1.551522,-0.000519,0.006021,0.007691,22.441642,45.245250,-30.471576,30.689399
-0.58,-1.00,-1.68 
-9.543775,-0.430978,1.580254,0.001611,0.006155,0.007824,22.441642,45.245250,-30.471576,30.704376
-0.58,-1.01,-1.69 
-9.538986,-0.416612,1.599408,0.002943,0.001361,0.002631,22.441642,45.245250,-30.471576,30.701381
-0.58,-1.01,-1.70 
-9.538986,-0.416612,1.599408,0.002943,0.001361,0.002631,22.441642,45.245250,-30.471576,30.701381
-0.59,-1.02,-1.71 
-9.548563,-0.454922,1.594620,0.002677,-0.002101,-0.006290,22.441642,45.245250,-30.471576,30.701381
-0.59,-1.02,-1.71 
-9.567718,-0.464499,1.556310,0.001212,-0.003699,-0.007356,22.441642,45.245250,-30.471576,30.710365
-0.59,-1.03,-1.72 
-9.558140,-0.435767,1.585042,0.000546,0.000162,0.001832,22.441642,45.245250,-30.471576,30.704376
-0.59,-1.03,-1.73 
-9.558140,-0.435767,1.585042,0.000546,0.000162,0.001832,22.441642,45.245250,-30.471576,30.704376
-0.60,-1.04,-1.73 
-9.553352,-0.450133,1.570676,0.000679,0.004024,0.001033,21.355756,47.055057,-30.821825,30.707370
-0.60,-1.04,-1.74 
-9.567718,-0.459710,1.565888,0.000679,0.005489,0.005694,21.355756,47.055057,-30.821825,30.710365
-0.60,-1.04,-1.75 
-9.577295,-0.440556,1.589831,0.000013,0.005356,0.011819,21.355756,47.055057,-30.821825,30.698387
-0.60,-1.05,-1.75 
-9.577295,-0.440556,1.589831,0.000013,0.005356,0.011819,21.355756,47.055057,-30.821825,30.698387
-0.61,-1.05,-1.76 
-9.577295,-0.426190,1.585042,0.000812,0.002559,0.002498,21.355756,47.055057,-30.821825,30.695390
-0.61,-1.06,-1.77 
-9.577295,-0.426190,1.565888,0.001878,-0.001835,-0.001497,21.355756,47.055057,-30.821825,30.701381
-0.61,-1.06,-1.77 
-9.577295,-0.435767,1.561099,0.002410,-0.002501,-0.005625,21.355756,47.055057,-30.821825,30.704376
-0.61,-1.07,-1.78 
-9.577295,-0.435767,1.561099,0.002410,-0.002501,-0.005625,21.355756,47.055057,-30.821825,30.704376
-0.62,-1.07,-1.79 
-9.572506,-0.459710,1.580254,0.000945,0.002826,-0.000964,21.355756,47.055057,-30.821825,30.713361
-0.62,-1.08,-1.80 
-9.572506,-0.426190,1.565888,-0.001185,0.009617,0.008623,21.536739,46.150154,-29.595956,30.698387
-0.62,-1.08,-1.80 
-9.558140,-0.435767,1.585042,-0.001984,0.013478,0.005028,21.536739,46.150154,-29.595956,30.707370
-0.62,-1.08,-1.81 
-9.558140,-0.435767,1.585042,-0.001984,0.013478,0.005028,21.536739,46.150154,-29.595956,30.707370
-0.62,-1.09,-1.82 
-9.558140,-0.435767,1.565888,-0.000253,0.011082,0.019409,21.536739,46.150154,-29.595956,30.707370
-0.63,-1.09,-1.82 
-9.572506,-0.421401,1.546733,-0.000519,0.005888,0.008357,21.536739,46.150154,-29.595956,30.704376
-0.63,-1.10,-1.83 
-9.562930,-0.435767,1.565888,0.001611,-0.001569,-0.010418,21.536739,46.150154,-29.595956,30.692394
-0.63,-1.10,-1.84 
-9.562930,-0.435767,1.565888,0.001611,-0.001569,-0.010418,21.536739,46.150154,-29.595956,30.692394
-0.63,-1.11,-1.85 
-9.562930,-0.459710,1.589831,0.004008,-0.010091,-0.016810,21.536739,46.150154,-29.595956,30.701381
-0.64,-1.11,-1.85 
-9.558140,-0.459710,1.580254,0.002011,-0.002767,-0.003228,21.536739,45.788192,-30.646699,30.698387
-0.64,-1.11,-1.86 
-9.577295,-0.430978,1.585042,0.000146,0.010549,0.013684,21.536739,45.788192,-30.646699,30.701381
-0.64,-1.12,-1.87 
-9.577295,-0.430978,1.585042,0.000146,0.010549,0.013684,21.536739,45.788192,-30.646699,30.701381
-0.64,-1.12,-1.87 
-9.558140,-0.421401,1.556310,-0.001052,0.015343,0.020475,21.536739,45.788192,-30.646699,30.698387
-0.65,-1.13,-1.88 
-9.577295,-0.416612,1.556310,0.000679,0.002426,0.016480,21.536739,45.788192,-30.646699,30.692394
-0.65,-1.13,-1.89 
-9.577295,-0.416612,1.556310,0.000679,0.002426,0.016480,21.536739,45.788192,-30.646699,30.692394
-0.65,-1.14,-1.89 
-9.562930,-0.421401,1.580254,0.003076,-0.004898,-0.005758,21.536739,45.788192,-30.646699,30.704376
-0.65,-1.14,-1.90 
-9.558140,-0.450133,1.589831,0.004008,-0.006762,-0.012948,21.536739,45.788192,-30.646699,30.707370
-0.66,-1.15,-1.91 
-9.567718,-0.454922,1.546733,0.002543,-0.003300,-0.001630,21.898700,46.150154,-29.245708,30.701381
-0.66,-1.15,-1.91 
-9.567718,-0.454922,1.546733,0.002543,-0.003300,-0.001630,21.898700,46.150154,-29.245708,30.701381
-0.66,-1.15,-1.92 
-9.572506,-0.426190,1.575465,0.000546,0.003358,0.010355,21.898700,46.150154,-29.245708,30.701381
-0.66,-1.16,-1.93 
-9.558140,-0.426190,1.570676,-0.001585,0.010948,0.009422,21.898700,46.150154,-29.245708,30.698387
-0.67,-1.16,-1.93 
-9.553352,-0.445344,1.570676,-0.001984,0.012679,0.015415,21.898700,46.150154,-29.245708,30.719352
-0.67,-1.17,-1.94 
-9.553352,-0.445344,1.570676,-0.001984,0.012679,0.015415,21.898700,46.150154,-29.245708,30.719352
-0.67,-1.17,-1.95 
-9.582084,-0.416612,1.556310,0.000013,0.005089,0.019809,21.898700,46.150154,-29.245708,30.710365
-0.67,-1.18,-1.95 
-9.572506,-0.416612,1.575465,0.002410,-0.001835,-0.013747,21.898700,46.150154,-29.245708,30.701381
-0.67,-1.18,-1.96 
-9.462368,-0.589004,1.474903,0.144891,-0.013020,-0.006290,22.079681,47.778984,-29.070585,30.689399
-0.68,-1.18,-1.97 
-9.462368,-0.589004,1.474903,0.144891,-0.013020,-0.006290,22.079681,47.778984,-29.070585,30.689399
-0.68,-1.17,-1.98 
-9.711378,-0.148448,1.637717,0.110536,-0.161893,0.057760,22.079681,47.778984,-29.070585,30.701381
-0.69,-1.17,-1.98 
-9.558140,-0.421401,1.613774,-0.009974,-0.131133,-0.241052,22.079681,47.778984,-29.070585,30.698387
-0.70,-1.18,-2.00 
-9.404904,-0.742240,1.676027,-0.041932,-0.052702,-0.224274,22.079681,47.778984,-29.070585,30.689399
-0.71,-1.18,-2.02 
-9.404904,-0.742240,1.676027,-0.041932,-0.052702,-0.224274,22.079681,47.778984,-29.070585,30.689399
-0.71,-1.19,-2.04 
-9.548563,-0.478865,1.771800,-0.056979,-0.001968,0.082527,22.079681,47.778984,-29.070585,30.686405
-0.72,-1.20,-2.04 
-9.543775,-0.493231,1.604197,-0.028616,0.111351,0.117815,22.079681,47.778984,-29.070585,30.686405
-0.71,-1.20,-2.04 
-9.170260,-2.016021,-0.186757,-0.461653,0.000429,0.589201,22.079681,47.778984,-29.070585,30.695390
-0.71,-1.23,-2.02 
-9.170260,-2.016021,-0.186757,-0.461653,0.000429,0.589201,22.079681,47.778984,-29.070585,30.695390
-0.72,-1.26,-1.99 
-10.123201,-1.096600,0.646467,-0.923585,0.190981,1.045008,22.984586,45.788192,-28.895460,30.695390
-0.71,-1.32,-1.94 
-9.017024,1.331244,1.977711,-1.179386,0.060218,0.208630,22.984586,45.788192,-28.895460,30.704376
-0.71,-1.39,-1.93 
-9.395327,1.800531,3.730356,-0.490149,-0.216489,-0.312958,22.984586,45.788192,-28.895460,30.698387
-0.72,-1.43,-1.96 
-9.395327,1.800531,3.730356,-0.490149,-0.216489,-0.312958,22.984586,45.788192,-28.895460,30.698387
-0.74,-1.46,-1.98 
-10.209397,0.818859,2.748684,-0.046060,0.252368,-1.203932,22.984586,45.788192,-28.895460,30.692394
-0.73,-1.47,-2.06 
-9.275610,-0.780550,1.091812,-0.031279,-0.005563,-3.193743,22.984586,45.788192,-28.895460,30.686405
-0.73,-1.47,-2.25 
-9.275610,-0.780550,1.091812,-0.031279,-0.005563,-3.193743,22.984586,45.788192,-28.895460,30.686405
-0.74,-1.48,-2.44 
-8.485484,-3.112621,2.078273,0.190699,-0.605316,-3.309992,22.984586,45.788192,-28.895460,30.689399
-0.78,-1.47,-2.64 
-8.777591,-3.510078,1.953768,0.023583,-0.387467,-1.710473,17.917118,49.769775,-29.245708,30.689399
-0.81,-1.48,-2.74 
-9.960387,-2.336860,1.613774,-0.310250,-0.019279,-0.984884,17.917118,49.769775,-29.245708,30.701381
-0.82,-1.50,-2.81 
-9.960387,-2.336860,1.613774,-0.310250,-0.019279,-0.984884,17.917118,49.769775,-29.245708,30.701381
-0.82,-1.52,-2.87 
-10.348267,-1.781377,2.063907,-0.619048,0.201101,-1.475312,17.917118,49.769775,-29.245708,30.689399
-0.81,-1.56,-2.96 
-9.524621,-3.074312,2.059118,-0.484956,-0.010091,-2.660837,17.917118,49.769775,-29.245708,30.698387
-0.82,-1.59,-3.12 
-9.208569,-4.448653,1.623351,-0.075089,-0.670165,-3.058453,17.917118,49.769775,-29.245708,30.707370
-0.87,-1.60,-3.30 
-9.208569,-4.448653,1.623351,-0.075089,-0.670165,-3.058453,17.917118,49.769775,-29.245708,30.707370
-0.91,-1.62,-3.48 
-8.284360,-4.577947,2.174046,0.042225,-1.222114,-3.368716,17.917118,49.769775,-29.245708,30.701381
-0.99,-1.62,-3.68 
-8.581256,-4.893998,2.279396,-0.092133,-1.090951,-2.735673,10.858860,53.208412,-30.821825,30.695390
-1.06,-1.64,-3.84 
-8.231685,-5.344130,2.609813,-0.225826,-0.923036,-3.067907,10.858860,53.208412,-30.821825,30.710365
-1.12,-1.66,-4.02 
-8.231685,-5.344130,2.609813,-0.225826,-0.923036,-3.067907,10.858860,53.208412,-30.821825,30.710365
-1.19,-1.68,-4.20 
-7.379306,-6.225242,3.275435,-0.124891,-1.533575,-4.176065,10.858860,53.208412,-30.821825,30.695390
-1.28,-1.70,-4.45 
-7.053678,-6.684952,2.729529,-0.361250,-1.461269,-4.099631,10.858860,53.208412,-30.821825,30.692394
-1.38,-1.73,-4.69 
-5.985809,-6.531715,2.537983,-0.406924,-1.495891,-4.326137,10.858860,53.208412,-30.821825,30.689399
-1.48,-1.77,-4.94 
-5.985809,-6.531715,2.537983,-0.406924,-1.495891,-4.326137,10.858860,53.208412,-30.821825,30.689399
-1.57,-1.80,-5.19 
-5.516522,-6.613122,2.360803,0.052345,-1.832786,-3.941304,10.858860,53.208412,-30.821825,30.701381
-1.69,-1.81,-5.42 
-5.511733,-7.154239,2.561926,-0.243004,-1.296417,-3.013711,-4.524525,53.027431,-29.245708,30.701381
-1.77,-1.84,-5.60 
-4.328937,-7.661836,2.954596,-0.358587,-1.018512,-2.960713,-4.524525,53.027431,-29.245708,30.692394
-1.84,-1.87,-5.77 
-4.328937,-7.661836,2.954596,-0.358587,-1.018512,-2.960713,-4.524525,53.027431,-29.245708,30.692394
-1.91,-1.90,-5.95 
-3.107832,-8.159855,3.002482,-0.019561,-1.265790,-2.966839,-4.524525,53.027431,-29.245708,30.695390
-1.99,-1.92,-6.12 
-2.461365,-8.638720,3.098255,0.088964,-1.294819,-2.546319,-4.524525,53.027431,-29.245708,30.698387
-2.08,-1.92,-6.27 
-2.049541,-8.466329,3.021636,-0.054183,-1.177638,-2.053627,-4.524525,53.027431,-29.245708,30.704376
-2.15,-1.94,-6.39 
-2.049541,-8.466329,3.021636,-0.054183,-1.177638,-2.053627,-4.524525,53.027431,-29.245708,30.704376
-2.23,-1.95,-6.51 
-2.379958,-8.571680,3.332899,0.093891,-1.127304,-1.500080,-4.524525,53.027431,-29.245708,30.710365
-2.30,-1.96,-6.60 
-3.088678,-8.351402,3.596274,0.118925,-1.057395,-1.242149,-4.524525,53.027431,-29.245708,30.701381
-2.37,-1.97,-6.68 
-3.088678,-8.351402,3.596274,0.118925,-1.057395,-1.242149,-4.524525,53.027431,-29.245708,30.701381
-2.43,-1.97,-6.75 
-2.820513,-8.595623,3.648949,-0.023023,-0.809850,-1.267183,-11.582784,50.674678,-29.420833,30.698387
-2.49,-1.98,-6.83 
-1.575465,-8.542947,3.476558,0.068990,-0.617567,-1.351074,-11.582784,50.674678,-29.420833,30.707370
-2.53,-1.99,-6.91 
-0.799704,-9.424058,4.127814,0.353021,-0.515567,-1.075166,-11.582784,50.674678,-29.420833,30.689399
-2.57,-1.97,-6.98 
-0.799704,-9.424058,4.127814,0.353021,-0.515567,-1.075166,-11.582784,50.674678,-29.420833,30.689399
-2.60,-1.96,-7.04 
-0.747029,-8.619565,2.849245,0.036366,-0.573758,-1.286891,-11.582784,50.674678,-29.420833,30.692394
-2.64,-1.97,-7.12 
-0.967307,-7.992252,3.318533,-0.203722,-0.376015,-0.875426,-11.582784,50.674678,-29.420833,30.689399
-2.67,-1.99,-7.18 
-1.345610,-8.514216,3.864439,-0.092400,-0.048308,0.017412,-11.582784,50.674678,-29.420833,30.695390
-2.68,-2.00,-7.18 
-1.345610,-8.514216,3.864439,-0.092400,-0.048308,0.017412,-11.582784,50.674678,-29.420833,30.695390
-2.69,-2.01,-7.19 
-1.087023,-8.514216,3.936268,-0.060308,0.145440,0.344853,-13.392594,48.502906,-28.019840,30.701381
-2.68,-2.01,-7.17 
-0.986461,-9.194204,3.960211,-0.004914,0.298707,0.690270,-13.392594,48.502906,-28.019840,30.692394
-2.67,-2.01,-7.14 
-0.459710,-9.136739,3.610640,-0.219967,0.259026,0.576285,-13.392594,48.502906,-28.019840,30.707370
-2.66,-2.03,-7.11 
-0.459710,-9.136739,3.610640,-0.219967,0.259026,0.576285,-13.392594,48.502906,-28.019840,30.707370
-2.64,-2.04,-7.09 
-0.809281,-8.519004,3.237126,-0.308385,0.298574,0.911449,-13.392594,48.502906,-28.019840,30.701381
-2.63,-2.06,-7.04 
-1.695181,-8.677029,3.577120,-0.231818,0.520019,1.707213,-13.392594,48.502906,-28.019840,30.692394
-2.60,-2.08,-6.95 
-2.059118,-8.576468,3.581908,-0.240873,0.661702,2.098837,-13.392594,48.502906,-28.019840,30.695390
-2.56,-2.09,-6.84 
-2.059118,-8.576468,3.581908,-0.240873,0.661702,2.098837,-13.392594,48.502906,-28.019840,30.695390
-2.53,-2.10,-6.73 
-2.763050,-8.629143,3.174873,-0.290143,0.880084,2.564498,-9.953955,50.131736,-28.545211,30.698387
-2.47,-2.12,-6.59 
-3.031214,-8.700973,3.361630,-0.487619,1.042273,2.534670,-9.953955,50.131736,-28.545211,30.698387
-2.41,-2.14,-6.45 
-4.070350,-8.404077,2.672065,-0.752607,1.285557,2.587668,-9.953955,50.131736,-28.545211,30.695390
-2.34,-2.18,-6.31 
-4.070350,-8.404077,2.672065,-0.752607,1.285557,2.587668,-9.953955,50.131736,-28.545211,30.695390
-2.26,-2.22,-6.17 
-6.253973,-5.650604,1.690392,-0.875514,1.533634,2.237057,-9.953955,50.131736,-28.545211,30.692394
-2.17,-2.26,-6.05 
-5.420749,-8.509427,2.557138,-0.304790,2.601045,4.249239,-9.953955,50.131736,-28.545211,30.707370
-2.02,-2.27,-5.82 
-5.420749,-8.509427,2.557138,-0.304790,2.601045,4.249239,-9.953955,50.131736,-28.545211,30.707370
-1.86,-2.27,-5.59 
-5.004137,-9.946022,3.251492,-0.478431,2.921828,3.940707,-9.953955,50.131736,-28.545211,30.704376
-1.69,-2.29,-5.38 
-6.148623,-7.005791,1.355187,-1.009606,2.035248,2.110156,-9.953955,50.131736,-28.545211,30.713361
-1.57,-2.34,-5.27 
-6.756782,-7.585217,1.312089,-1.210811,2.019535,1.808548,-3.076677,50.855659,-27.144220,30.701381
-1.46,-2.40,-5.17 
-6.756782,-7.585217,1.312089,-1.210811,2.019535,1.808548,-3.076677,50.855659,-27.144220,30.701381
-1.34,-2.47,-5.08 
-6.340169,-7.250012,0.818859,-1.322133,2.127395,1.278038,-3.076677,50.855659,-27.144220,30.698387
-1.22,-2.53,-5.02 
-6.665797,-7.484656,0.521963,-1.292572,1.849623,0.905989,-3.076677,50.855659,-27.144220,30.713361
-1.11,-2.60,-4.98 
-6.392844,-7.254801,-0.445344,-1.542779,1.730311,0.793735,-3.076677,50.855659,-27.144220,30.713361
-1.02,-2.69,-4.95 
-6.392844,-7.254801,-0.445344,-1.542779,1.730311,0.793735,-3.076677,50.855659,-27.144220,30.713361
-0.92,-2.77,-4.91 
-6.493406,-5.799052,-0.416612,-1.479795,1.578376,0.913712,-3.076677,50.855659,-27.144220,30.698387
-0.83,-2.85,-4.87 
-7.374517,-5.478213,-0.847591,-0.676706,1.128561,1.631445,-3.076677,50.855659,-27.144220,30.707370
-0.76,-2.89,-4.79 
-7.369729,-5.358497,-1.288146,-0.157648,0.984881,2.023069,0.000000,46.331134,-23.816864,30.698387
-0.71,-2.90,-4.68 
-7.369729,-5.358497,-1.288146,-0.157648,0.984881,2.023069,0.000000,46.331134,-23.816864,30.698387
-0.65,-2.91,-4.58 
-7.556486,-6.043273,-1.130121,0.122254,0.647587,1.332767,0.000000,46.331134,-23.816864,30.716358
-0.61,-2.90,-4.51 
-7.187760,-6.244396,-0.943364,0.256613,0.268879,0.652186,0.000000,46.331134,-23.816864,30.713361
-0.60,-2.89,-4.48 
-7.508599,-5.799052,-0.991250,0.308812,0.131192,0.930757,0.000000,46.331134,-23.816864,30.719352
-0.59,-2.87,-4.43 
-7.508599,-5.799052,-0.991250,0.308812,0.131192,0.930757,0.000000,46.331134,-23.816864,30.719352
-0.58,-2.86,-4.39 
-8.164645,-4.850900,-1.379130,0.589247,0.089912,1.759812,0.000000,46.331134,-23.816864,30.716358
-0.58,-2.83,-4.29 
-8.657875,-4.965827,-1.757434,0.647038,0.562098,2.840139,0.000000,46.331134,-23.816864,30.695390
-0.54,-2.79,-4.14 
-8.657875,-4.965827,-1.757434,0.647038,0.562098,2.840139,0.000000,46.331134,-23.816864,30.695390
-0.50,-2.76,-3.98 
-9.194204,-4.587524,-1.278569,0.314138,1.596885,3.534037,5.248449,45.064266,-23.291492,30.707370
-0.41,-2.74,-3.79 
-8.954771,-4.204432,-1.130121,0.168993,1.899291,3.357866,5.248449,45.064266,-23.291492,30.713361
-0.29,-2.72,-3.61 
-8.499850,-3.945845,-2.126159,0.173920,1.550812,2.951861,5.248449,45.064266,-23.291492,30.719352
-0.20,-2.71,-3.46 
-8.499850,-3.945845,-2.126159,0.173920,1.550812,2.951861,5.248449,45.064266,-23.291492,30.719352
-0.10,-2.70,-3.30 
-8.734494,-3.098255,-2.260241,-0.037937,1.302601,2.775823,5.248449,45.064266,-23.291492,30.701381
-0.03,-2.70,-3.15 
-8.854209,-2.260241,-2.542772,-0.109311,1.058519,2.587402,5.248449,45.064266,-23.291492,30.704376
0.04,-2.71,-3.01 
-8.973926,-1.513213,-2.662488,-0.010906,1.003391,2.640532,5.248449,45.064266,-23.291492,30.725341
0.10,-2.71,-2.87 
-8.973926,-1.513213,-2.662488,-0.010906,1.003391,2.640532,5.248449,45.064266,-23.291492,30.725341
0.16,-2.71,-2.73 
-9.467156,-1.096600,-2.705586,0.157009,1.017239,2.905654,12.668670,43.435440,-21.715375,30.716358
0.22,-2.70,-2.57 
-9.807150,-0.339994,-3.098255,0.227051,1.231227,2.739470,12.668670,43.435440,-21.715375,30.704376
0.30,-2.69,-2.43 
-8.236474,-0.277742,-3.021636,0.312407,1.410594,2.582075,12.668670,43.435440,-21.715375,30.710365
0.38,-2.67,-2.29 
-8.236474,-0.277742,-3.021636,0.312407,1.410594,2.582075,12.668670,43.435440,-21.715375,30.710365
0.47,-2.66,-2.15 
-8.595623,0.584215,-3.433460,0.390439,0.985414,3.051864,12.668670,43.435440,-21.715375,30.707370
0.53,-2.63,-1.99 
-8.911673,1.149275,-3.682470,0.531855,0.770760,3.478775,12.668670,43.435440,-21.715375,30.716358
0.58,-2.61,-1.80 
-8.911673,1.149275,-3.682470,0.531855,0.770760,3.478775,12.668670,43.435440,-21.715375,30.716358
0.63,-2.58,-1.61 
-9.093642,0.770972,-4.046407,0.549032,0.839870,3.201403,12.668670,43.435440,-21.715375,30.701381
0.68,-2.55,-1.44 
-9.184626,1.546733,-3.955423,0.459549,1.131091,3.522984,12.668670,43.435440,-21.715375,30.710365
0.76,-2.52,-1.24 
-8.777591,2.628968,-4.089505,0.372595,1.415388,3.289155,18.641042,38.910915,-20.489507,30.722347
0.84,-2.51,-1.07 
-8.777591,2.628968,-4.089505,0.372595,1.415388,3.289155,18.641042,38.910915,-20.489507,30.722347
0.93,-2.49,-0.89 
-8.447175,2.470942,-4.276262,0.218396,1.286622,2.478876,18.641042,38.910915,-20.489507,30.719352
1.01,-2.48,-0.76 
-7.666625,3.088678,-4.482174,0.187236,1.095537,2.181396,18.641042,38.910915,-20.489507,30.725341
1.07,-2.47,-0.64 
-7.120718,3.984155,-4.668931,0.161670,0.791799,2.372614,18.641042,38.910915,-20.489507,30.728336
1.12,-2.46,-0.52 
-7.120718,3.984155,-4.668931,0.161670,0.791799,2.372614,18.641042,38.910915,-20.489507,30.728336
1.17,-2.46,-0.39 
-7.398460,4.501328,-4.889209,0.184573,0.469552,2.486599,18.641042,38.910915,-20.489507,30.725341
1.20,-2.45,-0.26 
-7.475079,4.233164,-4.941884,0.271394,0.468087,2.179799,18.641042,38.910915,-20.489507,30.719352
1.23,-2.44,-0.14 
-7.494233,4.333726,-5.157373,0.256480,0.513628,2.047837,24.070472,32.757560,-18.388019,30.710365
1.26,-2.43,-0.03 
-7.494233,4.333726,-5.157373,0.256480,0.513628,2.047837,24.070472,32.757560,-18.388019,30.710365
1.30,-2.42,0.07 
-7.082409,4.328937,-5.138219,0.263537,0.700851,1.749691,24.070472,32.757560,-18.388019,30.707370
1.34,-2.40,0.17 
-6.129469,5.219625,-4.774281,0.223456,0.764768,1.432770,24.070472,32.757560,-18.388019,30.719352
1.38,-2.40,0.24 
-5.415960,5.588352,-5.348919,0.174054,0.157424,1.900695,24.070472,32.757560,-18.388019,30.722347
1.40,-2.39,0.34 
-5.415960,5.588352,-5.348919,0.174054,0.157424,1.900695,24.070472,32.757560,-18.388019,30.722347
1.41,-2.38,0.44 
-6.033696,6.483829,-5.459058,0.163800,-0.249912,2.714303,24.070472,32.757560,-18.388019,30.719352
1.40,-2.38,0.59 
-6.775936,5.981020,-5.315399,0.345297,0.065677,2.114284,24.070472,32.757560,-18.388019,30.722347
1.40,-2.36,0.70 
-6.751993,5.406383,-5.305821,0.360744,0.239451,1.311994,24.794395,28.052053,-17.337276,30.734329
1.42,-2.34,0.77 
-6.751993,5.406383,-5.305821,0.360744,0.239451,1.311994,24.794395,28.052053,-17.337276,30.734329
1.44,-2.33,0.83 
-6.230030,5.171739,-5.344130,0.161270,0.226668,0.235129,24.794395,28.052053,-17.337276,30.740318
1.45,-2.32,0.84 
-4.841322,5.636238,-5.348919,-0.035940,0.046902,-0.009619,24.794395,28.052053,-17.337276,30.734329
1.45,-2.33,0.83 
-4.841322,5.636238,-5.348919,-0.035940,0.046902,-0.009619,24.794395,28.052053,-17.337276,30.734329
1.45,-2.33,0.82 
-5.166951,6.182144,-5.037657,-0.211578,-0.413300,0.412232,24.794395,28.052053,-17.337276,30.716358
1.42,-2.35,0.84 
-5.382440,6.550869,-4.836534,-0.325164,-0.838080,-0.136122,24.794395,28.052053,-17.337276,30.722347
1.37,-2.37,0.83 
-5.976232,6.603545,-4.721606,-0.422370,-1.154202,-1.640564,24.794395,28.052053,-17.337276,30.728336
1.30,-2.40,0.73 
-5.976232,6.603545,-4.721606,-0.422370,-1.154202,-1.640564,24.794395,28.052053,-17.337276,30.728336
1.23,-2.42,0.63 
-6.493406,5.406383,-4.616256,-0.626771,-1.362997,-3.757543,24.794395,28.052053,-17.337276,30.719352
1.14,-2.46,0.41 
-6.977059,4.300205,-4.525272,-0.823582,-1.585774,-4.335591,25.156358,30.585788,-19.789012,30.725341
1.04,-2.51,0.16 
-6.890863,4.214010,-4.079927,-0.995491,-1.839311,-4.335591,25.156358,30.585788,-19.789012,30.725341
0.92,-2.57,-0.10 
-6.890863,4.214010,-4.079927,-0.995491,-1.839311,-4.335591,25.156358,30.585788,-19.789012,30.725341
0.80,-2.64,-0.35 
-8.255629,3.548388,-3.974577,-1.111607,-2.179002,-4.335591,25.156358,30.585788,-19.789012,30.728336
0.66,-2.71,-0.60 
-8.964348,1.972923,-3.787820,-0.747681,-1.702289,-4.335591,25.156358,30.585788,-19.789012,30.734329
0.55,-2.75,-0.85 
-9.826305,-0.512385,-3.059946,-0.511987,-1.064586,-4.335591,25.156358,30.585788,-19.789012,30.725341
0.48,-2.79,-1.10 
-9.826305,-0.512385,-3.059946,-0.511987,-1.064586,-4.335591,25.156358,30.585788,-19.789012,30.725341
0.40,-2.82,-1.35 
-9.050544,0.560272,-3.012059,-0.500003,-0.561640,-4.335591,25.156358,30.585788,-19.789012,30.737323
0.36,-2.86,-1.61 
-8.801534,0.387880,-3.031214,-0.314244,-0.687476,-3.097069,17.736137,42.711513,-22.766120,30.725341
0.31,-2.88,-1.79 
-8.973926,-0.584215,-3.146141,-0.049123,-0.949136,-1.974130,17.736137,42.711513,-22.766120,30.734329
0.24,-2.89,-1.91 
-8.973926,-0.584215,-3.146141,-0.049123,-0.949136,-1.974130,17.736137,42.711513,-22.766120,30.734329
0.18,-2.90,-2.03 
-9.764053,-0.775761,-2.528406,-0.046859,-0.833287,-2.172805,17.736137,42.711513,-22.766120,30.728336
0.13,-2.91,-2.15 
-9.979541,-2.135737,-1.862784,-0.374300,-1.127703,-4.213483,17.736137,42.711513,-22.766120,30.722347
0.05,-2.94,-2.40 
-9.064910,-2.480519,-2.202778,-0.654335,-1.648626,-4.335591,17.736137,42.711513,-22.766120,30.722347
-0.06,-2.98,-2.65 
-9.064910,-2.480519,-2.202778,-0.654335,-1.648626,-4.335591,17.736137,42.711513,-22.766120,30.722347
-0.17,-3.03,-2.90 
-8.442386,-3.668104,-2.107005,-0.277492,-1.707749,-4.335591,17.736137,42.711513,-22.766120,30.716358
-0.29,-3.05,-3.15 
-8.595623,-4.458231,-1.771800,-0.112374,-1.444092,-4.335591,3.438639,47.598003,-25.392980,30.722347
-0.39,-3.07,-3.40 
-8.839843,-5.607506,-1.288146,-0.114371,-0.926632,-3.577644,3.438639,47.598003,-25.392980,30.728336
-0.46,-3.09,-3.61 
-8.839843,-5.607506,-1.288146,-0.114371,-0.926632,-3.577644,3.438639,47.598003,-25.392980,30.728336
-0.52,-3.10,-3.82 
-8.423232,-6.972270,-0.675199,-0.114638,-1.352078,-4.335591,3.438639,47.598003,-25.392980,30.737323
-0.62,-3.12,-4.07 
-6.502983,-7.206914,-0.900266,0.331049,-2.355972,-4.335591,3.438639,47.598003,-25.392980,30.722347
-0.77,-3.11,-4.32 
-6.502983,-7.206914,-0.900266,0.331049,-2.355972,-4.335591,3.438639,47.598003,-25.392980,30.722347
-0.92,-3.11,-4.56 
-4.697663,-6.143835,-0.823647,0.599633,-2.003897,-4.335591,3.438639,47.598003,-25.392980,30.719352
-1.05,-3.09,-4.81 
-5.301033,-7.934789,-0.636890,0.804700,-1.338629,-3.581639,3.438639,47.598003,-25.392980,30.734329
-1.15,-3.06,-5.02 
-4.817379,-8.748859,0.004789,0.812423,-0.880159,-2.340853,-12.306708,49.226829,-25.918352,30.731332
-1.21,-3.02,-5.16 
-4.817379,-8.748859,0.004789,0.812423,-0.880159,-2.340853,-12.306708,49.226829,-25.918352,30.731332
-1.27,-2.98,-5.30 
-4.410344,-9.093642,0.239432,0.646372,-0.692403,-2.141379,-12.306708,49.226829,-25.918352,30.728336
-1.32,-2.95,-5.42 
-3.534022,-8.222108,0.263376,0.781796,-0.712510,-2.183325,-12.306708,49.226829,-25.918352,30.722347
-1.37,-2.92,-5.55 
-3.529233,-6.541292,-0.196335,1.354784,-0.414365,-0.434666,-12.306708,49.226829,-25.918352,30.728336
-1.40,-2.85,-5.58 
-3.529233,-6.541292,-0.196335,1.354784,-0.414365,-0.434666,-12.306708,49.226829,-25.918352,30.728336
-1.43,-2.78,-5.61 
-3.811763,-7.776763,0.627313,2.042955,0.374342,3.005790,-12.306708,49.226829,-25.918352,30.731332
-1.41,-2.66,-5.45 
-4.223587,-8.566890,1.254626,1.656658,1.134154,-4.335724,-12.306708,49.226829,-25.918352,30.731332
-1.36,-2.56,-5.70 
-6.230030,-8.337036,1.599408,0.745443,1.923926,-4.335724,-12.306708,49.226829,-25.918352,30.734329
-1.26,-2.51,-5.96 
-6.230030,-8.337036,1.599408,0.745443,1.923926,-4.335724,-12.306708,49.226829,-25.918352,30.734329
-1.17,-2.46,-6.22 
-7.599584,-7.623527,1.125332,-0.026086,2.274270,-4.335724,-1.990791,52.303508,-32.397941,30.731332
-1.05,-2.46,-6.48 
-8.418442,-5.593140,0.589004,-0.227957,1.661601,-4.335724,-1.990791,52.303508,-32.397941,30.716358
-0.97,-2.46,-6.74 
-8.499850,-4.343303,0.038309,-0.049389,1.012978,3.875326,-1.990791,52.303508,-32.397941,30.728336
-0.91,-2.46,-6.53 
-8.499850,-4.343303,0.038309,-0.049389,1.012978,3.875326,-1.990791,52.303508,-32.397941,30.728336
-0.84,-2.46,-6.32 
-8.557313,-4.190066,0.019155,0.207077,0.865303,3.502877,-1.990791,52.303508,-32.397941,30.725341
-0.79,-2.45,-6.12 
-8.744071,-3.816552,0.057464,0.340770,0.943868,3.815670,-1.990791,52.303508,-32.397941,30.722347
-0.73,-2.43,-5.91 
-8.605200,-3.126987,-0.105350,0.216665,0.971166,3.817667,-1.990791,52.303508,-32.397941,30.734329
-0.67,-2.41,-5.70 
-8.605200,-3.126987,-0.105350,0.216665,0.971166,3.817667,-1.990791,52.303508,-32.397941,30.734329
-0.61,-2.40,-5.49 
-1.125332,-4.348092,-0.177180,0.058471,0.264485,3.250938,13.935537,47.959964,-29.946205,30.731332
-0.59,-2.40,-5.31 
-0.062252,-1.939402,1.082234,-1.049688,-2.769434,-1.930587,13.935537,47.959964,-29.946205,30.731332
-0.76,-2.48,-5.42 
-0.062252,-1.939402,1.082234,-1.049688,-2.769434,-1.930587,13.935537,47.959964,-29.946205,30.731332
-0.92,-2.56,-5.53 
-0.747029,-0.105350,2.164469,-0.040867,-4.420353,0.196379,13.935537,47.959964,-29.946205,30.734329
-1.18,-2.59,-5.52 
6.321014,-0.871534,9.783207,-0.007976,-2.368489,-4.335724,13.935537,47.959964,-29.946205,30.737323
-1.33,-2.61,-5.77 
-6.814245,3.064734,2.705586,-1.098957,3.906147,3.814871,13.935537,47.959964,-29.946205,30.737323
-1.10,-2.65,-5.57 
-6.814245,3.064734,2.705586,-1.098957,3.906147,3.814871,13.935537,47.959964,-29.946205,30.737323
-0.87,-2.70,-5.36 
-9.926867,0.694354,-3.921902,-0.375631,1.528840,1.009455,13.935537,47.959964,-29.946205,30.737323
-0.78,-2.72,-5.32 
-10.558968,1.632929,0.258587,0.635187,-1.990980,-1.426576,23.527528,43.435440,-26.268600,30.743312
-0.90,-2.70,-5.40 
-9.069699,-0.881111,2.245876,0.888324,-2.890610,-4.278732,23.527528,43.435440,-26.268600,30.731332
-1.08,-2.67,-5.64 
-9.069699,-0.881111,2.245876,0.888324,-2.890610,-4.278732,23.527528,43.435440,-26.268600,30.731332
-1.26,-2.64,-5.89 
-8.049716,-3.648949,2.341649,0.893517,-1.988184,-3.718128,23.527528,43.435440,-26.268600,30.734329
-1.39,-2.60,-6.10 
-8.542947,-3.543599,3.107832,0.609753,-0.468694,-0.378073,23.527528,43.435440,-26.268600,30.731332
-1.42,-2.57,-6.13 
-8.820689,-2.288974,3.285012,0.034235,0.887408,1.478977,23.527528,43.435440,-26.268600,30.743312
-1.36,-2.57,-6.06 
-8.820689,-2.288974,3.285012,0.034235,0.887408,1.478977,23.527528,43.435440,-26.268600,30.743312
-1.31,-2.57,-5.98 
-9.275610,-1.541944,2.150103,-0.267772,1.194475,1.766736,23.527528,43.435440,-26.268600,30.737323
-1.24,-2.58,-5.89 
-9.764053,-0.589004,1.331244,-0.229155,0.737603,1.363794,23.527528,43.435440,-26.268600,30.734329
-1.20,-2.59,-5.82 
-9.917289,-0.301685,1.292935,-0.046726,0.108155,0.441527,23.527528,43.435440,-26.268600,30.734329
-1.19,-2.60,-5.80 
-9.917289,-0.301685,1.292935,-0.046726,0.108155,0.441527,23.527528,43.435440,-26.268600,30.734329
-1.19,-2.60,-5.78 
-9.529409,-1.019982,1.589831,0.084836,-0.359503,-0.636271,23.527528,43.435440,-26.268600,30.737323
-1.21,-2.61,-5.83 
-9.208569,-1.695181,2.025598,0.134505,-0.517564,-0.840538,23.527528,43.435440,-26.268600,30.731332
-1.25,-2.61,-5.88 
-9.194204,-1.800531,2.265030,0.018789,-0.295453,-0.399779,23.527528,43.435440,-26.268600,30.734329
-1.27,-2.61,-5.91 
-9.194204,-1.800531,2.265030,0.018789,-0.295453,-0.399779,23.527528,43.435440,-26.268600,30.734329
-1.29,-2.62,-5.94 
-9.198992,-1.819686,2.073484,-0.067233,0.142377,0.167084,23.527528,43.435440,-26.268600,30.716358
-1.28,-2.62,-5.94 
-9.428847,-1.268992,1.781377,-0.092267,0.335060,0.700390,23.527528,43.435440,-26.268600,30.725341
-1.26,-2.63,-5.90 
-9.701800,-0.747029,1.647295,-0.070562,0.263953,0.652319,21.898700,45.426231,-30.996948,30.731332
-1.25,-2.64,-5.87 
-9.701800,-0.747029,1.647295,-0.070562,0.263953,0.652319,21.898700,45.426231,-30.996948,30.731332
-1.23,-2.64,-5.84 
-9.596450,-0.895477,1.551522,-0.020626,0.071936,0.109692,21.898700,45.426231,-30.996948,30.725341
-1.23,-2.65,-5.84 
-9.476734,-1.134909,1.723913,0.044089,-0.175875,-0.255566,21.898700,45.426231,-30.996948,30.725341
-1.24,-2.65,-5.86 
-9.476734,-1.134909,1.723913,0.044089,-0.175875,-0.255566,21.898700,45.426231,-30.996948,30.725341
-1.26,-2.65,-5.88 
-9.385749,-1.350399,1.963345,0.059270,-0.228473,-0.330935,21.898700,45.426231,-30.996948,30.719352
-1.27,-2.66,-5.91 
-9.299553,-1.513213,2.025598,0.022784,-0.085326,-0.153299,21.898700,45.426231,-30.996948,30.719352
-1.28,-2.66,-5.92 
-9.371383,-1.369553,1.915459,-0.020626,0.073267,0.178269,21.898700,45.426231,-30.996948,30.737323
-1.28,-2.67,-5.92 
-9.371383,-1.369553,1.915459,-0.020626,0.073267,0.178269,21.898700,45.426231,-30.996948,30.737323
-1.28,-2.67,-5.92 
-9.486311,-1.120543,1.790954,-0.040068,0.152231,0.346184,21.355756,46.331134,-31.172073,30.725341
-1.27,-2.68,-5.90 
-9.548563,-0.991250,1.680815,-0.030347,0.118142,0.259897,21.355756,46.331134,-31.172073,30.725341
-1.27,-2.68,-5.90 
-9.534197,-1.000827,1.709547,-0.000386,-0.000637,0.051634,21.355756,46.331134,-31.172073,30.722347
-1.27,-2.69,-5.90 
-9.534197,-1.000827,1.709547,-0.000386,-0.000637,0.051634,21.355756,46.331134,-31.172073,30.722347
-1.27,-2.69,-5.90 
-9.467156,-1.139698,1.829263,0.024115,-0.091984,-0.120941,21.355756,46.331134,-31.172073,30.722347
-1.28,-2.70,-5.92 
-9.390538,-1.268992,1.915459,0.024382,-0.090520,-0.135589,21.355756,46.331134,-31.172073,30.722347
-1.29,-2.70,-5.93 
-9.400115,-1.249837,1.925036,0.006671,-0.027002,-0.001896,21.355756,46.331134,-31.172073,30.719352
-1.29,-2.70,-5.94 
-9.400115,-1.249837,1.925036,0.006671,-0.027002,-0.001896,21.355756,46.331134,-31.172073,30.719352
-1.30,-2.71,-5.94 
-9.424058,-1.168430,1.867572,-0.013170,0.048233,0.123674,20.812814,45.426231,-28.895460,30.716358
-1.30,-2.71,-5.94 
-9.476734,-1.077446,1.786165,-0.016765,0.073400,0.162157,20.812814,45.426231,-28.895460,30.710365
-1.29,-2.72,-5.94 
-9.495888,-1.010405,1.781377,-0.007710,0.033852,0.114619,20.812814,45.426231,-28.895460,30.725341
-1.29,-2.72,-5.94 
-9.495888,-1.010405,1.781377,-0.007710,0.033852,0.114619,20.812814,45.426231,-28.895460,30.725341
-1.29,-2.73,-5.94 
-9.491100,-1.053502,1.771800,0.005473,-0.015950,0.006493,20.812814,45.426231,-28.895460,30.725341
-1.30,-2.73,-5.95 
-9.462368,-1.106178,1.838841,0.011998,-0.042316,-0.055693,20.812814,45.426231,-28.895460,30.728336
-1.30,-2.73,-5.96 
-9.433636,-1.130121,1.881938,0.009068,-0.035258,-0.029061,20.812814,45.426231,-28.895460,30.728336
-1.31,-2.74,-5.97 
-9.433636,-1.130121,1.881938,0.009068,-0.035258,-0.029061,20.812814,45.426231,-28.895460,30.728336
-1.31,-2.74,-5.97 
-9.433636,-1.130121,1.843629,0.000945,-0.000903,0.027266,20.812814,45.426231,-28.895460,30.725341
-1.32,-2.75,-5.98 
-9.448001,-1.106178,1.814897,-0.006378,0.025330,0.079997,20.993795,45.607212,-30.121328,30.722347
-1.32,-2.75,-5.98 
-9.467156,-1.077446,1.790954,-0.008509,0.041708,0.094911,20.993795,45.607212,-30.121328,30.707370
-1.32,-2.76,-5.98 
-9.467156,-1.077446,1.790954,-0.008509,0.041708,0.094911,20.993795,45.607212,-30.121328,30.707370
-1.32,-2.76,-5.98 
-9.481522,-1.024770,1.805320,-0.005313,0.029724,0.080796,20.993795,45.607212,-30.121328,30.722347
-1.32,-2.77,-5.99 
-9.491100,-0.991250,1.786165,0.000945,-0.002634,0.033924,20.993795,45.607212,-30.121328,30.725341
-1.32,-2.77,-5.99 
-9.491100,-0.991250,1.786165,0.000945,-0.002634,0.033924,20.993795,45.607212,-30.121328,30.725341
-1.32,-2.77,-5.99 
-9.467156,-1.048714,1.824475,0.009468,-0.027002,-0.026531,20.993795,45.607212,-30.121328,30.725341
-1.33,-2.78,-6.00 
-9.467156,-1.077446,1.857995,0.009201,-0.034193,-0.036518,20.993795,45.607212,-30.121328,30.719352
-1.33,-2.78,-6.01 
-9.448001,-1.115755,1.843629,0.005473,-0.013686,-0.007489,22.079681,46.331134,-30.121328,30.722347
-1.33,-2.79,-6.02 
-9.448001,-1.115755,1.843629,0.005473,-0.013686,-0.007489,22.079681,46.331134,-30.121328,30.722347
-1.34,-2.79,-6.03 
-9.457579,-1.077446,1.838841,-0.005047,0.020003,0.054297,22.079681,46.331134,-30.121328,30.728336
-1.34,-2.79,-6.03 
-9.476734,-1.029559,1.819686,-0.006512,0.032387,0.085324,22.079681,46.331134,-30.121328,30.728336
-1.34,-2.80,-6.03 
-9.505466,-0.976884,1.814897,-0.002650,0.017340,0.060023,22.079681,46.331134,-30.121328,30.722347
-1.34,-2.80,-6.03 
-9.505466,-0.976884,1.814897,-0.002650,0.017340,0.060023,22.079681,46.331134,-30.121328,30.722347
-1.34,-2.81,-6.04 
-9.481522,-1.000827,1.824475,0.003475,-0.011556,0.000900,22.079681,46.331134,-30.121328,30.731332
-1.35,-2.81,-6.04 
-9.462368,-1.043925,1.848418,0.008269,-0.028334,-0.040779,22.079681,46.331134,-30.121328,30.728336
-1.35,-2.82,-6.05 
-9.452791,-1.043925,1.814897,0.005473,-0.022608,-0.020539,22.803606,45.969173,-28.720336,30.722347
-1.35,-2.82,-6.06 
-9.452791,-1.043925,1.814897,0.005473,-0.022608,-0.020539,22.803606,45.969173,-28.720336,30.722347
-1.36,-2.82,-6.07 
-9.457579,-1.067868,1.829263,0.000013,0.002426,0.017146,22.803606,45.969173,-28.720336,30.716358
-1.36,-2.83,-6.07 
-9.467156,-1.029559,1.829263,-0.003715,0.018539,0.047373,22.803606,45.969173,-28.720336,30.725341
-1.36,-2.83,-6.08 
-9.481522,-1.000827,1.819686,-0.003715,0.014544,0.046707,22.803606,45.969173,-28.720336,30.740318
-1.36,-2.84,-6.08 
-9.481522,-1.000827,1.819686,-0.003715,0.014544,0.046707,22.803606,45.969173,-28.720336,30.740318
-1.36,-2.84,-6.09 
-9.486311,-1.005616,1.819686,-0.001451,0.003758,0.010754,22.803606,45.969173,-28.720336,30.722347
-1.37,-2.85,-6.09 
-9.476734,-1.024770,1.848418,0.001212,-0.003966,0.002099,22.803606,45.969173,-28.720336,30.716358
-1.37,-2.85,-6.10 
-9.467156,-1.010405,1.829263,-0.000386,-0.003167,0.017678,23.165567,44.883285,-29.420833,30.722347
-1.37,-2.85,-6.10 
-9.467156,-1.010405,1.829263,-0.000386,-0.003167,0.017678,23.165567,44.883285,-29.420833,30.722347
-1.37,-2.86,-6.11 
-9.471945,-1.029559,1.834052,-0.000386,0.007087,0.023537,23.165567,44.883285,-29.420833,30.725341
-1.38,-2.86,-6.11 
-9.486311,-0.986461,1.819686,-0.001984,0.010815,0.037919,23.165567,44.883285,-29.420833,30.725341
-1.38,-2.87,-6.12 
-9.476734,-1.000827,1.829263,-0.002117,0.012946,0.034190,23.165567,44.883285,-29.420833,30.731332
-1.38,-2.87,-6.12 
-9.476734,-1.000827,1.829263,-0.002117,0.012946,0.034190,23.165567,44.883285,-29.420833,30.731332
-1.38,-2.88,-6.13 
-9.486311,-1.000827,1.824475,-0.002517,0.013745,0.036587,23.165567,44.883285,-29.420833,30.719352
-1.38,-2.88,-6.13 
-9.495888,-0.967307,1.848418,0.001212,0.004956,0.033658,23.165567,44.883285,-29.420833,30.710365
-1.38,-2.89,-6.14 
-9.495888,-0.967307,1.848418,0.001212,0.004956,0.033658,23.165567,44.883285,-29.420833,30.710365
-1.39,-2.89,-6.14 
-9.486311,-0.972095,1.848418,0.001345,-0.003167,0.009689,23.165567,44.883285,-29.420833,30.716358
-1.39,-2.89,-6.15 
-9.491100,-1.010405,1.800531,0.000679,-0.007028,-0.008821,22.260662,45.788192,-29.245708,30.716358
-1.39,-2.90,-6.15 
-9.467156,-0.996039,1.805320,0.001345,-0.006229,0.004495,22.260662,45.788192,-29.245708,30.734329
-1.39,-2.90,-6.16 
-9.467156,-0.996039,1.805320,0.001345,-0.006229,0.004495,22.260662,45.788192,-29.245708,30.734329
-1.40,-2.91,-6.17 
-9.467156,-0.981673,1.824475,-0.000652,0.006421,0.020874,22.260662,45.788192,-29.245708,30.728336
-1.40,-2.91,-6.17 
-9.471945,-0.981673,1.810109,-0.001851,0.016275,0.039783,22.260662,45.788192,-29.245708,30.716358
-1.40,-2.92,-6.18 
-9.486311,-0.948152,1.786165,-0.001851,0.010416,0.043378,22.260662,45.788192,-29.245708,30.716358
-1.40,-2.92,-6.18 
-9.486311,-0.948152,1.786165,-0.001851,0.010416,0.043378,22.260662,45.788192,-29.245708,30.716358
-1.40,-2.92,-6.19 
-9.495888,-0.948152,1.805320,0.000280,-0.001968,0.007425,22.260662,45.788192,-29.245708,30.716358
-1.41,-2.93,-6.19 
-9.462368,-0.996039,1.819686,0.004541,-0.014485,-0.020805,21.898700,45.426231,-28.895460,30.722347
-1.41,-2.93,-6.20 
-9.471945,-0.976884,1.843629,0.002943,-0.012488,0.000234,21.898700,45.426231,-28.895460,30.731332
-1.41,-2.94,-6.21 
-9.471945,-0.976884,1.843629,0.002943,-0.012488,0.000234,21.898700,45.426231,-28.895460,30.731332
-1.42,-2.94,-6.21 
-9.471945,-0.981673,1.824475,-0.003582,0.012413,0.009156,21.898700,45.426231,-28.895460,30.725341
-1.42,-2.94,-6.22 
-9.529409,-1.019982,1.819686,-0.000786,0.015343,0.030195,21.898700,45.426231,-28.895460,30.719352
-1.42,-2.95,-6.22 
-9.519831,-0.905054,1.795743,-0.001851,0.005888,0.056694,21.898700,45.426231,-28.895460,30.707370
-1.42,-2.95,-6.23 
-9.519831,-0.905054,1.795743,-0.001851,0.005888,0.056694,21.898700,45.426231,-28.895460,30.707370
-1.42,-2.96,-6.23 
-9.481522,-0.933786,1.824475,0.002810,0.002826,0.007958,21.898700,45.426231,-28.895460,30.707370
-1.43,-2.96,-6.24 
-9.481522,-0.928998,1.800531,0.005340,-0.009825,-0.020006,21.355756,45.245250,-31.522321,30.707370
-1.43,-2.97,-6.24 
-9.462368,-0.952941,1.805320,0.006006,-0.028067,-0.033988,21.355756,45.245250,-31.522321,30.716358
-1.43,-2.97,-6.25 
-9.462368,-0.952941,1.805320,0.006006,-0.028067,-0.033988,21.355756,45.245250,-31.522321,30.716358
-1.44,-2.97,-6.26 
-9.438425,-0.972095,1.829263,0.006671,-0.023806,-0.026398,21.355756,45.245250,-31.522321,30.716358
-1.44,-2.98,-6.27 
-9.481522,-0.967307,1.857995,0.000413,-0.006229,-0.000298,21.355756,45.245250,-31.522321,30.722347
-1.45,-2.98,-6.27 
-9.452791,-0.981673,1.829263,-0.003316,0.009217,0.019676,21.355756,45.245250,-31.522321,30.722347
-1.45,-2.99,-6.28 
-9.452791,-0.981673,1.829263,-0.003316,0.009217,0.019676,21.355756,45.245250,-31.522321,30.722347
-1.45,-2.99,-6.28 
-9.486311,-0.967307,1.853207,-0.003183,0.013345,0.035122,21.355756,45.245250,-31.522321,30.704376
-1.45,-3.00,-6.29 
-9.471945,-0.986461,1.824475,-0.004115,0.029058,0.033258,21.355756,45.245250,-31.522321,30.713361
-1.45,-3.00,-6.29 
-9.471945,-0.986461,1.824475,-0.004115,0.029058,0.033258,21.355756,45.245250,-31.522321,30.713361
-1.45,-3.01,-6.30 
-9.481522,-0.938575,1.800531,-0.002783,0.032254,0.074937,20.269870,45.969173,-30.121328,30.728336
-1.45,-3.01,-6.30 
-9.524621,-0.857168,1.790954,-0.002783,0.012679,0.076002,20.269870,45.969173,-30.121328,30.722347
-1.46,-3.02,-6.30 
-9.500677,-0.895477,1.810109,0.003209,-0.013819,-0.027996,20.269870,45.969173,-30.121328,30.713361
-1.46,-3.02,-6.31 
-9.500677,-0.895477,1.810109,0.003209,-0.013819,-0.027996,20.269870,45.969173,-30.121328,30.713361
-1.46,-3.02,-6.32 
-9.471945,-0.967307,1.843629,0.008935,-0.033527,-0.083124,20.269870,45.969173,-30.121328,30.710365
-1.47,-3.03,-6.33 
-9.433636,-0.996039,1.867572,0.005340,-0.028733,-0.057424,20.269870,45.969173,-30.121328,30.713361
-1.47,-3.03,-6.34 
-9.438425,-0.986461,1.862784,0.000013,0.001095,0.014882,20.269870,45.969173,-30.121328,30.719352
-1.47,-3.04,-6.34 
-9.438425,-0.986461,1.862784,0.000013,0.001095,0.014882,20.269870,45.969173,-30.121328,30.719352
-1.48,-3.04,-6.35 
-9.500677,-0.933786,1.824475,-0.005579,0.018539,0.070143,24.070472,45.788192,-28.545211,30.713361
-1.48,-3.05,-6.35 
-9.495888,-0.909843,1.829263,-0.006645,0.028126,0.046441,24.070472,45.788192,-28.545211,30.719352
-1.48,-3.05,-6.36 
-9.476734,-0.933786,1.814897,-0.001318,0.013079,0.016613,24.070472,45.788192,-28.545211,30.719352
-1.48,-3.05,-6.36 
-9.476734,-0.933786,1.814897,-0.001318,0.013079,0.016613,24.070472,45.788192,-28.545211,30.719352
-1.48,-3.06,-6.37 
-9.510254,-0.895477,1.834052,0.000945,-0.011556,0.004096,24.070472,45.788192,-28.545211,30.713361
-1.48,-3.06,-6.37 
-9.448001,-0.972095,1.800531,0.002410,-0.000370,-0.012549,24.070472,45.788192,-28.545211,30.725341
-1.49,-3.07,-6.38 
-9.476734,-0.938575,1.838841,0.002410,0.004956,0.036987,24.070472,45.788192,-28.545211,30.719352
-1.49,-3.07,-6.38 
-9.476734,-0.938575,1.838841,0.002410,0.004956,0.036987,24.070472,45.788192,-28.545211,30.719352
-1.49,-3.07,-6.39 
-9.500677,-0.885900,1.838841,-0.001585,0.011348,0.050702,22.441642,44.159362,-28.720336,30.710365
-1.49,-3.08,-6.39 
-9.481522,-0.919420,1.786165,-0.002117,0.013612,0.009689,22.441642,44.159362,-28.720336,30.716358
-1.49,-3.08,-6.40 
-9.500677,-0.890688,1.810109,0.003076,-0.011689,-0.005891,22.441642,44.159362,-28.720336,30.710365
-1.50,-3.09,-6.40 
-9.500677,-0.890688,1.810109,0.003076,-0.011689,-0.005891,22.441642,44.159362,-28.720336,30.710365
-1.50,-3.09,-6.41 
-9.486311,-0.919420,1.848418,0.005340,-0.022741,-0.028661,22.441642,44.159362,-28.720336,30.719352
-1.50,-3.09,-6.42 
-9.467156,-0.967307,1.838841,0.002011,-0.009159,-0.033855,22.441642,44.159362,-28.720336,30.716358
-1.51,-3.10,-6.43 
-9.467156,-0.967307,1.838841,0.002011,-0.009159,-0.033855,22.441642,44.159362,-28.720336,30.716358
-1.51,-3.10,-6.44 
-9.462368,-0.967307,1.819686,-0.000519,0.006687,0.010221,22.441642,44.159362,-28.720336,30.713361
-1.51,-3.11,-6.44 
-9.486311,-0.909843,1.824475,-0.001718,0.013079,0.054164,19.907909,47.778984,-30.821825,30.707370
-1.51,-3.11,-6.45 
-9.510254,-0.914632,1.800531,-0.002517,0.015609,0.031394,19.907909,47.778984,-30.821825,30.704376
-1.52,-3.12,-6.45 
-9.510254,-0.914632,1.800531,-0.002517,0.015609,0.031394,19.907909,47.778984,-30.821825,30.704376
-1.52,-3.12,-6.45 
-9.486311,-0.909843,1.814897,-0.001185,0.008552,0.016879,19.907909,47.778984,-30.821825,30.710365
-1.52,-3.12,-6.46 
-9.491100,-0.890688,1.834052,0.000812,-0.001835,0.018877,19.907909,47.778984,-30.821825,30.716358
-1.52,-3.13,-6.47 
-9.481522,-0.919420,1.829263,0.000546,0.001760,0.007824,19.907909,47.778984,-30.821825,30.701381
-1.52,-3.13,-6.47 
-9.481522,-0.919420,1.829263,0.000546,0.001760,0.007824,19.907909,47.778984,-30.821825,30.701381
-1.53,-3.14,-6.48 
-9.486311,-0.919420,1.834052,-0.000652,0.006687,0.018344,19.907909,47.778984,-30.821825,30.722347
-1.53,-3.14,-6.48 
-9.495888,-0.885900,1.848418,-0.001185,0.006687,0.034190,19.907909,47.778984,-30.821825,30.716358
-1.53,-3.15,-6.49 
-9.491100,-0.876322,1.800531,0.000413,0.009217,0.023671,17.736137,48.502906,-31.172073,30.719352
-1.53,-3.15,-6.49 
-9.491100,-0.876322,1.800531,0.000413,0.009217,0.023671,17.736137,48.502906,-31.172073,30.719352
-1.54,-3.15,-6.50 
-9.491100,-0.905054,1.824475,0.001079,-0.001036,0.007824,17.736137,48.502906,-31.172073,30.713361
-1.54,-3.16,-6.50 
-9.495888,-0.890688,1.838841,0.002144,-0.007960,-0.002562,17.736137,48.502906,-31.172073,30.719352
-1.54,-3.16,-6.51 
-9.476734,-0.890688,1.824475,0.001345,-0.007161,-0.015612,17.736137,48.502906,-31.172073,30.710365
-1.55,-3.17,-6.52 
-9.476734,-0.890688,1.824475,0.001345,-0.007161,-0.015612,17.736137,48.502906,-31.172073,30.710365
-1.55,-3.17,-6.52 
-9.476734,-0.909843,1.838841,0.003076,-0.006895,-0.011351,17.736137,48.502906,-31.172073,30.710365
-1.55,-3.18,-6.53 
-9.510254,-0.905054,1.843629,0.002543,-0.002634,0.006493,17.736137,48.502906,-31.172073,30.707370
-1.56,-3.18,-6.54 
-9.491100,-0.890688,1.805320,-0.001451,0.007886,0.014482,18.460062,51.398601,-32.923313,30.716358
-1.56,-3.19,-6.54 
-9.491100,-0.890688,1.805320,-0.001451,0.007886,0.014482,18.460062,51.398601,-32.923313,30.716358
-1.56,-3.19,-6.55 
-9.476734,-0.881111,1.810109,-0.002783,0.009617,0.013817,18.460062,51.398601,-32.923313,30.725341
-1.56,-3.19,-6.55 
-9.486311,-0.890688,1.824475,-0.000253,0.002826,0.010088,18.460062,51.398601,-32.923313,30.725341
-1.56,-3.20,-6.56 
-9.486311,-0.890688,1.824475,-0.000253,0.002826,0.010088,18.460062,51.398601,-32.923313,30.725341
-1.57,-3.20,-6.56 
-9.476734,-0.905054,1.819686,0.000280,0.004690,0.017146,18.460062,51.398601,-32.923313,30.737323
-1.57,-3.21,-6.57 
-9.505466,-0.866745,1.834052,-0.000253,0.003491,0.024203,18.460062,51.398601,-32.923313,30.734329
-1.57,-3.21,-6.57 
-9.495888,-0.871534,1.838841,-0.000786,0.009484,0.012485,18.460062,51.398601,-32.923313,30.731332
-1.57,-3.22,-6.58 
-9.495888,-0.871534,1.838841,-0.000786,0.009484,0.012485,18.460062,51.398601,-32.923313,30.731332
-1.58,-3.22,-6.58 
-9.486311,-0.900266,1.805320,-0.002517,0.014677,0.015947,17.374176,51.036640,-32.573066,30.710365
-1.58,-3.22,-6.59 
-9.500677,-0.857168,1.795743,-0.002783,0.008152,0.039383,17.374176,51.036640,-32.573066,30.716358
-1.58,-3.23,-6.59 
-9.481522,-0.861956,1.795743,-0.002783,0.011614,0.021140,17.374176,51.036640,-32.573066,30.725341
-1.58,-3.23,-6.60 
-9.481522,-0.861956,1.795743,-0.002783,0.011614,0.021140,17.374176,51.036640,-32.573066,30.725341
-1.58,-3.24,-6.60 
-9.476734,-0.838013,1.819686,0.001345,0.007087,0.013950,17.374176,51.036640,-32.573066,30.710365
-1.59,-3.24,-6.61 
-9.486311,-0.842802,1.814897,0.001345,0.000562,0.014482,17.374176,51.036640,-32.573066,30.716358
-1.59,-3.25,-6.61 
-9.491100,-0.890688,1.819686,0.001478,-0.003566,-0.008421,17.374176,51.036640,-32.573066,30.716358
-1.59,-3.25,-6.62 
-9.491100,-0.890688,1.819686,0.001478,-0.003566,-0.008421,17.374176,51.036640,-32.573066,30.716358
-1.60,-3.25,-6.63 
-9.481522,-0.866745,1.814897,0.000945,-0.003167,0.002631,17.374176,51.036640,-32.573066,30.710365
-1.60,-3.26,-6.63 
-9.491100,-0.866745,1.819686,-0.000919,0.006421,0.021407,18.641042,50.855659,-33.098438,30.719352
-1.60,-3.26,-6.64 
-9.476734,-0.866745,1.805320,-0.003582,0.026262,0.032859,18.641042,50.855659,-33.098438,30.725341
-1.60,-3.27,-6.64 
-9.476734,-0.866745,1.805320,-0.003582,0.026262,0.032859,18.641042,50.855659,-33.098438,30.725341
-1.60,-3.27,-6.65 
-9.505466,-0.828436,1.786165,-0.003981,0.023599,0.049770,18.641042,50.855659,-33.098438,30.719352
-1.61,-3.28,-6.65 
-9.505466,-0.818859,1.819686,-0.001185,0.002826,0.023937,18.641042,50.855659,-33.098438,30.722347
-1.61,-3.28,-6.65 
-9.491100,-0.833225,1.800531,-0.000919,-0.003832,-0.007356,18.641042,50.855659,-33.098438,30.716358
-1.61,-3.28,-6.66 
-9.491100,-0.833225,1.800531,-0.000919,-0.003832,-0.007356,18.641042,50.855659,-33.098438,30.716358
-1.61,-3.29,-6.67 
-9.476734,-0.866745,1.834052,-0.000253,0.002692,-0.019606,18.641042,50.855659,-33.098438,30.719352
-1.62,-3.29,-6.67 
-9.438425,-0.967307,1.790954,-0.014901,0.051695,0.014349,18.460062,51.036640,-32.222816,30.716358
-1.62,-3.30,-6.68 
-9.519831,-0.814070,1.762222,-0.012637,0.054891,0.128734,18.460062,51.036640,-32.222816,30.707370
-1.62,-3.30,-6.68 
-9.519831,-0.814070,1.762222,-0.012637,0.054891,0.128734,18.460062,51.036640,-32.222816,30.707370
-1.61,-3.31,-6.68 
-9.543775,-0.718297,1.733490,-0.012903,0.035716,0.116350,18.460062,51.036640,-32.222816,30.719352
-1.61,-3.31,-6.68 
-9.524621,-0.761395,1.728702,-0.002117,0.016941,0.015015,18.460062,51.036640,-32.222816,30.722347
-1.62,-3.32,-6.68 
-9.524621,-0.761395,1.728702,-0.002117,0.016941,0.015015,18.460062,51.036640,-32.222816,30.722347
-1.62,-3.32,-6.69 
-9.519831,-0.785338,1.824475,0.011332,-0.028467,-0.053296,18.460062,51.036640,-32.222816,30.710365
-1.62,-3.32,-6.70 
-9.452791,-0.919420,1.886727,0.002943,-0.012488,-0.068077,18.460062,51.036640,-32.222816,30.713361
-1.63,-3.33,-6.71 
-9.448001,-0.905054,1.781377,-0.010107,0.042774,0.044710,18.460062,51.036640,-33.623809,30.710365
-1.63,-3.33,-6.71 
-9.448001,-0.905054,1.781377,-0.010107,0.042774,0.044710,18.460062,51.036640,-33.623809,30.710365
-1.63,-3.34,-6.71 
-9.524621,-0.742240,1.747856,-0.008109,0.047567,0.141650,18.460062,51.036640,-33.623809,30.698387
-1.63,-3.34,-6.71 
-9.577295,-0.675199,1.709547,-0.003715,0.000562,0.049237,18.460062,51.036640,-33.623809,30.704376
-1.63,-3.35,-6.71 
-9.481522,-0.828436,1.752645,0.009201,-0.026603,-0.092312,18.460062,51.036640,-33.623809,30.707370
-1.63,-3.35,-6.73 
-9.481522,-0.828436,1.752645,0.009201,-0.026603,-0.092312,18.460062,51.036640,-33.623809,30.707370
-1.64,-3.35,-6.74 
-9.515043,-0.818859,1.810109,0.015060,-0.052968,-0.061685,18.460062,51.036640,-33.623809,30.707370
-1.64,-3.36,-6.75 
-9.486311,-0.847591,1.814897,0.006538,-0.025404,-0.025998,18.460062,51.036640,-33.623809,30.704376
-1.65,-3.36,-6.75 
-9.481522,-0.857168,1.800531,0.000146,0.011082,0.008490,18.641042,51.217620,-33.798931,30.686405
-1.65,-3.37,-6.76 
-9.481522,-0.857168,1.800531,0.000146,0.011082,0.008490,18.641042,51.217620,-33.798931,30.686405
-1.65,-3.37,-6.76 
-9.519831,-0.799704,1.767011,-0.003582,0.012946,0.045509,18.641042,51.217620,-33.798931,30.707370
-1.66,-3.37,-6.77 
-9.486311,-0.785338,1.790954,-0.002916,0.019204,0.031660,18.641042,51.217620,-33.798931,30.704376
-1.66,-3.38,-6.77 
-9.524621,-0.761395,1.762222,-0.001984,-0.004232,0.007292,18.641042,51.217620,-33.798931,30.704376
-1.66,-3.38,-6.78 
-9.524621,-0.761395,1.762222,-0.001984,-0.004232,0.007292,18.641042,51.217620,-33.798931,30.704376
-1.66,-3.39,-6.78 
-9.515043,-0.790127,1.814897,0.008536,-0.033793,-0.037849,18.641042,51.217620,-33.798931,30.689399
-1.67,-3.39,-6.79 
-9.476734,-0.857168,1.853207,0.007603,-0.024605,-0.064348,18.641042,51.217620,-33.798931,30.695390
-1.67,-3.40,-6.80 
-9.471945,-0.866745,1.814897,0.001478,-0.000770,-0.005758,18.641042,51.217620,-33.798931,30.695390
-1.67,-3.40,-6.81 
-9.471945,-0.866745,1.814897,0.001478,-0.000770,-0.005758,18.641042,51.217620,-33.798931,30.695390
-1.68,-3.40,-6.81 
-9.505466,-0.775761,1.776588,-0.001185,0.006954,0.054431,18.641042,50.493698,-32.748188,30.716358
-1.68,-3.41,-6.82 
-9.519831,-0.756606,1.752645,-0.003049,0.012546,0.029396,18.641042,50.493698,-32.748188,30.722347
-1.68,-3.41,-6.82 
-9.519831,-0.756606,1.752645,-0.003049,0.012546,0.029396,18.641042,50.493698,-32.748188,30.722347
-1.68,-3.42,-6.82 
-9.491100,-0.847591,1.752645,0.000280,0.008818,-0.010552,18.641042,50.493698,-32.748188,30.707370
-1.69,-3.42,-6.83 
-9.515043,-0.790127,1.790954,0.004141,-0.011955,0.013417,18.641042,50.493698,-32.748188,30.704376
-1.69,-3.43,-6.84 
-9.500677,-0.775761,1.814897,0.003342,-0.017548,-0.014147,18.641042,50.493698,-32.748188,30.698387
-1.69,-3.43,-6.84 
-9.500677,-0.775761,1.814897,0.003342,-0.017548,-0.014147,18.641042,50.493698,-32.748188,30.698387
-1.70,-3.43,-6.85 
-9.467156,-0.852379,1.800531,-0.000120,-0.002234,-0.032789,18.641042,50.493698,-32.748188,30.710365
-1.70,-3.44,-6.86 
-9.500677,-0.818859,1.795743,0.000013,0.003358,0.021673,18.641042,50.131736,-33.098438,30.698387
-1.70,-3.44,-6.86 
-9.519831,-0.780550,1.805320,0.000546,0.004024,0.027932,18.641042,50.131736,-33.098438,30.707370
-1.70,-3.45,-6.87 
-9.519831,-0.780550,1.805320,0.000546,0.004024,0.027932,18.641042,50.131736,-33.098438,30.707370
-1.71,-3.45,-6.87 
-9.491100,-0.794915,1.790954,0.001212,-0.001702,-0.001497,18.641042,50.131736,-33.098438,30.698387
-1.71,-3.45,-6.88 
-9.510254,-0.785338,1.805320,0.005207,-0.016349,-0.009353,18.641042,50.131736,-33.098438,30.704376
-1.71,-3.46,-6.88 
-9.486311,-0.838013,1.800531,0.002677,-0.008892,-0.024400,18.641042,50.131736,-33.098438,30.704376
-1.72,-3.46,-6.89 
-9.486311,-0.838013,1.800531,0.002677,-0.008892,-0.024400,18.641042,50.131736,-33.098438,30.704376
-1.72,-3.47,-6.90 
-9.486311,-0.852379,1.829263,-0.000652,0.002692,0.000368,18.641042,50.131736,-33.098438,30.716358
-1.72,-3.47,-6.90 
-9.491100,-0.809281,1.771800,-0.002783,0.014810,0.031527,18.641042,50.855659,-33.098438,30.710365
-1.72,-3.48,-6.91 
-9.505466,-0.794915,1.781377,-0.001984,0.016142,0.030994,18.641042,50.855659,-33.098438,30.710365
-1.73,-3.48,-6.91 
-9.505466,-0.794915,1.781377,-0.001984,0.016142,0.030994,18.641042,50.855659,-33.098438,30.710365
-1.73,-3.48,-6.92 
-9.515043,-0.766184,1.805320,0.000413,-0.003566,0.013151,18.641042,50.855659,-33.098438,30.713361
-1.73,-3.49,-6.92 
-9.500677,-0.794915,1.814897,0.003342,-0.004631,-0.013481,18.641042,50.855659,-33.098438,30.707370
-1.73,-3.49,-6.93 
-9.471945,-0.823647,1.786165,0.000945,0.004690,-0.010019,18.641042,50.855659,-33.098438,30.713361
-1.74,-3.50,-6.93 
-9.471945,-0.823647,1.786165,0.000945,0.004690,-0.010019,18.641042,50.855659,-33.098438,30.713361
-1.74,-3.50,-6.94 
-9.515043,-0.785338,1.795743,0.000413,0.002692,0.021407,18.641042,50.855659,-33.098438,30.704376
-1.74,-3.50,-6.94 
-9.519831,-0.780550,1.781377,0.001611,-0.000903,0.007292,17.736137,50.674678,-33.273559,30.698387
-1.74,-3.51,-6.95 
-9.519831,-0.780550,1.781377,0.001611,-0.000903,0.007292,17.736137,50.674678,-33.273559,30.698387
-1.75,-3.51,-6.96 
-9.505466,-0.809281,1.814897,0.002277,0.001095,-0.006823,17.736137,50.674678,-33.273559,30.704376
-1.75,-3.52,-6.96 
-9.495888,-0.818859,1.786165,0.000679,-0.002368,0.000900,17.736137,50.674678,-33.273559,30.704376
-1.75,-3.52,-6.97 
-9.505466,-0.804493,1.800531,0.000679,-0.001835,0.006626,17.736137,50.674678,-33.273559,30.704376
-1.76,-3.53,-6.97 
-9.505466,-0.804493,1.800531,0.000679,-0.001835,0.006626,17.736137,50.674678,-33.273559,30.704376
-1.76,-3.53,-6.98 
-9.491100,-0.818859,1.795743,-0.001185,0.012280,0.002365,17.736137,50.674678,-33.273559,30.707370
-1.76,-3.53,-6.98 
-9.500677,-0.785338,1.786165,0.000413,0.002293,0.021007,17.736137,50.674678,-33.273559,30.713361
-1.76,-3.54,-6.99 
-9.519831,-0.785338,1.819686,0.003609,-0.008227,0.004495,17.736137,50.674678,-33.273559,30.701381
-1.77,-3.54,-6.99 
-9.519831,-0.785338,1.819686,0.003609,-0.008227,0.004495,17.736137,50.674678,-33.273559,30.701381
-1.77,-3.55,-7.00 
-9.486311,-0.833225,1.771800,0.001345,-0.005697,-0.025199,18.460062,51.036640,-31.172073,30.713361
-1.77,-3.55,-7.01 
-9.491100,-0.814070,1.776588,0.002810,-0.012355,-0.001230,18.460062,51.036640,-31.172073,30.707370
-1.78,-3.55,-7.01 
-9.505466,-0.809281,1.824475,0.003076,-0.004365,0.005028,18.460062,51.036640,-31.172073,30.701381
-1.78,-3.56,-7.02 
-9.505466,-0.809281,1.824475,0.003076,-0.004365,0.005028,18.460062,51.036640,-31.172073,30.701381
-1.78,-3.56,-7.02 
-9.505466,-0.799704,1.819686,-0.001052,0.009217,0.004362,18.460062,51.036640,-31.172073,30.695390
-1.78,-3.57,-7.03 
-9.500677,-0.809281,1.795743,-0.001185,0.013345,0.016480,18.460062,51.036640,-31.172073,30.701381
-1.79,-3.57,-7.04 
-9.505466,-0.785338,1.814897,-0.004914,0.021468,0.035788,18.460062,51.036640,-31.172073,30.686405
-1.79,-3.57,-7.04 
-9.505466,-0.785338,1.814897,-0.004914,0.021468,0.035788,18.460062,51.036640,-31.172073,30.686405
-1.79,-3.58,-7.04 
-9.495888,-0.799704,1.738279,-0.005446,0.027194,0.036321,18.822023,51.036640,-33.974056,30.692394
-1.79,-3.58,-7.05 
-9.529409,-0.751818,1.757434,-0.001984,0.004557,0.031527,18.822023,51.036640,-33.974056,30.707370
-1.79,-3.59,-7.05 
-9.529409,-0.751818,1.757434,-0.001984,0.004557,0.031527,18.822023,51.036640,-33.974056,30.707370
-1.79,-3.59,-7.05 
-9.529409,-0.747029,1.786165,0.004408,-0.020611,-0.019606,18.822023,51.036640,-33.974056,30.704376
-1.80,-3.60,-7.06 
-9.500677,-0.809281,1.800531,0.006938,-0.032595,-0.063416,18.822023,51.036640,-33.974056,30.707370
-1.80,-3.60,-7.07 
-9.476734,-0.847591,1.824475,0.005473,-0.019013,-0.039181,18.822023,51.036640,-33.974056,30.698387
-1.81,-3.60,-7.08 
-9.476734,-0.847591,1.824475,0.005473,-0.019013,-0.039181,18.822023,51.036640,-33.974056,30.698387
-1.81,-3.61,-7.09 
-9.486311,-0.828436,1.795743,-0.001318,0.008285,0.022605,18.822023,51.036640,-33.974056,30.692394
-1.81,-3.61,-7.09 
-9.515043,-0.770972,1.781377,-0.003316,0.024664,0.054431,19.003004,50.493698,-33.098438,30.698387
-1.81,-3.62,-7.09 
-9.519831,-0.761395,1.776588,0.000146,0.014011,0.034723,19.003004,50.493698,-33.098438,30.701381
-1.82,-3.62,-7.10 
-9.519831,-0.761395,1.776588,0.000146,0.014011,0.034723,19.003004,50.493698,-33.098438,30.701381
-1.82,-3.62,-7.10 
-9.510254,-0.756606,1.790954,0.003209,-0.010224,-0.006157,19.003004,50.493698,-33.098438,30.692394
-1.82,-3.63,-7.11 
-9.510254,-0.794915,1.810109,0.008136,-0.025671,-0.034387,19.003004,50.493698,-33.098438,30.695390
-1.82,-3.63,-7.11 
-9.510254,-0.823647,1.824475,0.008136,-0.024738,-0.026398,19.003004,50.493698,-33.098438,30.692394
-1.83,-3.64,-7.12 
-9.510254,-0.823647,1.824475,0.008136,-0.024738,-0.026398,19.003004,50.493698,-33.098438,30.692394
-1.83,-3.64,-7.13 
-9.500677,-0.823647,1.829263,0.002144,-0.002101,-0.000298,19.003004,50.493698,-33.098438,30.698387
-1.84,-3.64,-7.13 
-9.505466,-0.790127,1.790954,-0.002384,0.019471,0.035788,19.003004,50.493698,-33.098438,30.701381
-1.84,-3.65,-7.14 
-9.519831,-0.770972,1.776588,-0.003449,0.024398,0.050702,19.726928,51.217620,-32.397941,30.698387
-1.84,-3.65,-7.14 
-9.519831,-0.770972,1.776588,-0.003449,0.024398,0.050702,19.726928,51.217620,-32.397941,30.698387
-1.84,-3.66,-7.14 
-9.505466,-0.770972,1.767011,-0.001851,0.015343,0.013550,19.726928,51.217620,-32.397941,30.704376
-1.84,-3.66,-7.15 
-9.510254,-0.766184,1.790954,0.002410,-0.007295,-0.007356,19.726928,51.217620,-32.397941,30.707370
-1.84,-3.66,-7.16 
-9.500677,-0.785338,1.781377,0.003609,-0.016483,-0.027330,19.726928,51.217620,-32.397941,30.698387
-1.85,-3.67,-7.16 
-9.500677,-0.785338,1.781377,0.003609,-0.016483,-0.027330,19.726928,51.217620,-32.397941,30.698387
-1.85,-3.67,-7.17 
-9.505466,-0.823647,1.810109,0.005872,-0.019146,-0.033322,19.726928,51.217620,-32.397941,30.701381
-1.85,-3.68,-7.18 
-9.491100,-0.804493,1.829263,0.003609,-0.015550,-0.008954,19.726928,51.217620,-32.397941,30.701381
-1.86,-3.68,-7.18 
-9.491100,-0.804493,1.829263,0.003609,-0.015550,-0.008954,19.726928,51.217620,-32.397941,30.701381
-1.86,-3.68,-7.19 
-9.491100,-0.814070,1.800531,-0.000519,0.004690,0.002099,19.545948,49.950756,-32.222816,30.707370
-1.86,-3.69,-7.20 
-9.495888,-0.794915,1.810109,-0.003183,0.019471,0.029263,19.545948,49.950756,-32.222816,30.713361
-1.87,-3.69,-7.20 
-9.505466,-0.751818,1.824475,-0.002650,0.020669,0.043245,19.545948,49.950756,-32.222816,30.710365
-1.87,-3.70,-7.20 
-9.505466,-0.751818,1.824475,-0.002650,0.020669,0.043245,19.545948,49.950756,-32.222816,30.710365
-1.87,-3.70,-7.21 
-9.491100,-0.751818,1.771800,-0.001185,0.011481,0.016879,19.545948,49.950756,-32.222816,30.707370
-1.87,-3.70,-7.21 
-9.500677,-0.761395,1.819686,0.002144,-0.007428,-0.004426,19.545948,49.950756,-32.222816,30.707370
-1.87,-3.71,-7.22 
-9.481522,-0.809281,1.810109,0.001611,-0.005830,-0.011617,19.545948,49.950756,-32.222816,30.695390
-1.88,-3.71,-7.22 
-9.481522,-0.809281,1.810109,0.001611,-0.005830,-0.011617,19.545948,49.950756,-32.222816,30.695390
-1.88,-3.72,-7.23 
-9.491100,-0.799704,1.786165,-0.001052,0.010682,0.018078,18.822023,51.398601,-31.172073,30.695390
-1.88,-3.72,-7.24 
-9.505466,-0.766184,1.776588,-0.004647,0.024398,0.041115,18.822023,51.398601,-31.172073,30.713361
-1.88,-3.72,-7.24 
-9.500677,-0.766184,1.786165,-0.002650,0.018938,0.026067,18.822023,51.398601,-31.172073,30.704376
-1.88,-3.73,-7.24 
-9.500677,-0.766184,1.786165,-0.002650,0.018938,0.026067,18.822023,51.398601,-31.172073,30.704376
-1.88,-3.73,-7.25 
-9.529409,-0.747029,1.776588,0.001079,-0.009825,0.010221,18.822023,51.398601,-31.172073,30.701381
-1.89,-3.74,-7.25 
-9.510254,-0.766184,1.824475,0.007071,-0.027535,-0.030925,18.822023,51.398601,-31.172073,30.716358
-1.89,-3.74,-7.26 
-9.476734,-0.809281,1.843629,0.006938,-0.022208,-0.043708,18.822023,51.398601,-31.172073,30.710365
-1.90,-3.74,-7.27 
-9.476734,-0.809281,1.843629,0.006938,-0.022208,-0.043708,18.822023,51.398601,-31.172073,30.710365
-1.90,-3.75,-7.28 
-9.491100,-0.799704,1.824475,0.000546,-0.003300,-0.000964,19.545948,50.312717,-32.923313,30.707370
-1.90,-3.75,-7.28 
-9.491100,-0.785338,1.786165,-0.004914,0.027860,0.036987,19.545948,50.312717,-32.923313,30.713361
-1.90,-3.76,-7.29 
-9.495888,-0.751818,1.814897,-0.004381,0.029724,0.057493,19.545948,50.312717,-32.923313,30.704376
-1.90,-3.76,-7.29 
-9.495888,-0.751818,1.814897,-0.004381,0.029724,0.057493,19.545948,50.312717,-32.923313,30.704376
-1.90,-3.76,-7.29 
-9.515043,-0.747029,1.810109,-0.004115,0.026262,0.036987,19.545948,50.312717,-32.923313,30.707370
-1.91,-3.77,-7.29 
-9.505466,-0.747029,1.752645,-0.000519,0.008818,0.014216,19.545948,50.312717,-32.923313,30.692394
-1.91,-3.77,-7.30 
-9.529409,-0.723086,1.790954,0.003076,-0.016882,-0.006956,19.545948,50.312717,-32.923313,30.698387
-1.91,-3.78,-7.31 
-9.529409,-0.723086,1.790954,0.003076,-0.016882,-0.006956,19.545948,50.312717,-32.923313,30.698387
-1.91,-3.78,-7.31 
-9.500677,-0.775761,1.781377,0.006671,-0.024206,-0.052364,19.545948,50.312717,-32.923313,30.704376
-1.92,-3.78,-7.32 
-9.481522,-0.809281,1.810109,0.005073,-0.025138,-0.032789,19.183984,51.398601,-31.872568,30.695390
-1.92,-3.79,-7.33 
-9.481522,-0.809281,1.810109,0.005073,-0.025138,-0.032789,19.183984,51.398601,-31.872568,30.695390
-1.93,-3.79,-7.33 
-9.491100,-0.794915,1.819686,0.000945,-0.000770,0.005561,19.183984,51.398601,-31.872568,30.698387
-1.93,-3.80,-7.34 
-9.495888,-0.790127,1.790954,-0.002650,0.019870,0.030462,19.183984,51.398601,-31.872568,30.701381
-1.93,-3.80,-7.34 
-9.515043,-0.737452,1.800531,-0.001185,0.014411,0.032859,19.183984,51.398601,-31.872568,30.704376
-1.93,-3.80,-7.35 
-9.515043,-0.737452,1.800531,-0.001185,0.014411,0.032859,19.183984,51.398601,-31.872568,30.704376
-1.93,-3.81,-7.35 
-9.510254,-0.756606,1.781377,0.000812,-0.001835,0.000634,19.183984,51.398601,-31.872568,30.695390
-1.94,-3.81,-7.36 
-9.505466,-0.775761,1.781377,0.003076,-0.016749,-0.027729,19.183984,51.398601,-31.872568,30.707370
-1.94,-3.82,-7.36 
-9.481522,-0.790127,1.800531,0.003209,-0.017681,-0.026930,18.098098,51.036640,-32.923313,30.692394
-1.94,-3.82,-7.37 
-9.481522,-0.790127,1.800531,0.003209,-0.017681,-0.026930,18.098098,51.036640,-32.923313,30.692394
-1.95,-3.82,-7.38 
-9.495888,-0.766184,1.834052,0.002410,-0.007561,-0.006823,18.098098,51.036640,-32.923313,30.701381
-1.95,-3.83,-7.38 
-9.510254,-0.785338,1.838841,-0.001984,0.010149,0.011020,18.098098,51.036640,-32.923313,30.704376
-1.95,-3.83,-7.39 
-9.515043,-0.766184,1.781377,-0.003848,0.016807,0.027266,18.098098,51.036640,-32.923313,30.713361
-1.95,-3.84,-7.39 
-9.515043,-0.766184,1.781377,-0.003848,0.016807,0.027266,18.098098,51.036640,-32.923313,30.713361
-1.96,-3.84,-7.40 
-9.495888,-0.775761,1.800531,-0.000652,0.007087,0.020475,18.098098,51.036640,-32.923313,30.722347
-1.96,-3.84,-7.40 
-9.515043,-0.747029,1.790954,0.000812,-0.001169,-0.004559,18.098098,51.036640,-32.923313,30.695390
-1.96,-3.85,-7.41 
-9.486311,-0.775761,1.790954,0.001079,-0.004631,-0.018674,19.545948,50.674678,-31.872568,30.695390
-1.96,-3.85,-7.41 
-9.486311,-0.775761,1.790954,0.001079,-0.004631,-0.018674,19.545948,50.674678,-31.872568,30.695390
-1.97,-3.86,-7.42 
-9.491100,-0.766184,1.800531,-0.000120,-0.003566,-0.000165,19.545948,50.674678,-31.872568,30.698387
-1.97,-3.86,-7.43 
-9.500677,-0.770972,1.795743,-0.000652,0.004424,0.008623,19.545948,50.674678,-31.872568,30.704376
-1.97,-3.86,-7.43 
-9.500677,-0.775761,1.814897,-0.001318,0.006820,0.011686,19.545948,50.674678,-31.872568,30.707370
-1.97,-3.87,-7.44 
-9.500677,-0.775761,1.814897,-0.001318,0.006820,0.011686,19.545948,50.674678,-31.872568,30.707370
-1.98,-3.87,-7.44 
-9.505466,-0.756606,1.786165,0.000546,0.001095,0.009556,19.545948,50.674678,-31.872568,30.710365
-1.98,-3.88,-7.45 
-9.510254,-0.761395,1.800531,0.001079,-0.001302,-0.004027,19.545948,50.674678,-31.872568,30.704376
-1.98,-3.88,-7.45 
-9.495888,-0.775761,1.814897,-0.000786,-0.001435,-0.005225,19.545948,50.674678,-31.872568,30.686405
-1.98,-3.88,-7.46 
-9.495888,-0.775761,1.814897,-0.000786,-0.001435,-0.005225,19.545948,50.674678,-31.872568,30.686405
-1.99,-3.89,-7.47 
-9.491100,-0.775761,1.800531,0.000679,-0.002234,0.000101,18.279081,49.045848,-32.397941,30.707370
-1.99,-3.89,-7.47 
-9.481522,-0.756606,1.767011,0.000546,0.000695,0.005827,18.279081,49.045848,-32.397941,30.704376
-1.99,-3.90,-7.48 
-9.481522,-0.756606,1.767011,0.000546,0.000695,0.005827,18.279081,49.045848,-32.397941,30.704376
-1.99,-3.90,-7.48 
-9.505466,-0.775761,1.814897,0.001611,0.001095,0.003697,18.279081,49.045848,-32.397941,30.710365
-2.00,-3.90,-7.49 
-9.505466,-0.766184,1.810109,0.000413,0.001760,0.004096,18.279081,49.045848,-32.397941,30.701381
-2.00,-3.91,-7.49 
-9.495888,-0.790127,1.795743,0.000413,0.000695,0.003563,18.279081,49.045848,-32.397941,30.704376
-2.00,-3.91,-7.50 
-9.495888,-0.790127,1.795743,0.000413,0.000695,0.003563,18.279081,49.045848,-32.397941,30.704376
-2.00,-3.92,-7.50 
-9.510254,-0.761395,1.781377,0.001212,0.000429,0.006093,18.279081,49.045848,-32.397941,30.713361
-2.01,-3.92,-7.51 
-9.505466,-0.766184,1.781377,0.001478,-0.001169,0.000234,19.183984,52.122528,-33.273559,30.698387
-2.01,-3.92,-7.51 
-9.500677,-0.780550,1.781377,0.002943,-0.001569,-0.004293,19.183984,52.122528,-33.273559,30.707370
-2.01,-3.93,-7.52 
-9.500677,-0.780550,1.781377,0.002943,-0.001569,-0.004293,19.183984,52.122528,-33.273559,30.707370
-2.01,-3.93,-7.52 
-9.505466,-0.766184,1.819686,0.000679,0.000695,0.001566,19.183984,52.122528,-33.273559,30.716358
-2.02,-3.93,-7.53 
-9.519831,-0.785338,1.829263,0.000812,0.004157,0.006759,19.183984,52.122528,-33.273559,30.719352
-2.02,-3.94,-7.53 
-9.500677,-0.775761,1.805320,-0.000519,0.005622,0.010621,19.183984,52.122528,-33.273559,30.716358
-2.02,-3.94,-7.54 
-9.500677,-0.775761,1.805320,-0.000519,0.005622,0.010621,19.183984,52.122528,-33.273559,30.716358
-2.02,-3.95,-7.54 
-9.515043,-0.780550,1.814897,-0.000253,0.003491,0.005694,19.183984,52.122528,-33.273559,30.701381
-2.03,-3.95,-7.55 
-9.500677,-0.775761,1.786165,-0.000386,0.001760,0.005960,18.098098,49.226829,-30.121328,30.710365
-2.03,-3.95,-7.55 
-9.500677,-0.766184,1.786165,0.001212,-0.000370,0.003563,18.098098,49.226829,-30.121328,30.701381
-2.03,-3.96,-7.56 
-9.500677,-0.766184,1.786165,0.001212,-0.000370,0.003563,18.098098,49.226829,-30.121328,30.701381
-2.03,-3.96,-7.57 
-9.505466,-0.761395,1.786165,0.001878,-0.002501,-0.002828,18.098098,49.226829,-30.121328,30.713361
-2.04,-3.97,-7.57 
-9.486311,-0.775761,1.805320,0.001212,0.000029,-0.004293,18.098098,49.226829,-30.121328,30.713361
-2.04,-3.97,-7.58 
-9.505466,-0.766184,1.819686,0.000280,0.000029,0.002498,18.098098,49.226829,-30.121328,30.698387
-2.04,-3.97,-7.58 
-9.505466,-0.766184,1.819686,0.000280,0.000029,0.002498,18.098098,49.226829,-30.121328,30.698387
-2.04,-3.98,-7.59 
-9.500677,-0.775761,1.805320,0.000679,0.001095,0.006759,18.098098,49.226829,-30.121328,30.704376
-2.05,-3.98,-7.59 
-9.515043,-0.770972,1.781377,-0.000120,0.001894,0.004762,19.183984,51.036640,-31.522321,30.707370
-2.05,-3.99,-7.60 
-9.505466,-0.766184,1.786165,-0.000519,0.002293,0.005827,19.183984,51.036640,-31.522321,30.704376
-2.05,-3.99,-7.60 
-9.505466,-0.766184,1.786165,-0.000519,0.002293,0.005827,19.183984,51.036640,-31.522321,30.704376
-2.05,-3.99,-7.61 
-9.500677,-0.766184,1.776588,0.000013,0.003625,0.007292,19.183984,51.036640,-31.522321,30.707370
-2.05,-4.00,-7.61 
-9.606027,-0.785338,1.814897,0.000546,0.000961,0.009289,19.183984,51.036640,-31.522321,30.710365
-2.06,-4.00,-7.62 
-9.606027,-0.785338,1.814897,0.000546,0.000961,0.009289,19.183984,51.036640,-31.522321,30.710365
-2.06,-4.00,-7.62 
-9.510254,-0.761395,1.824475,-0.000652,0.002826,0.006493,19.183984,51.036640,-31.522321,30.716358
-2.06,-4.01,-7.63 
-9.438425,-0.747029,1.781377,-0.000386,0.003758,0.000234,19.183984,51.036640,-31.522321,30.713361
-2.06,-4.01,-7.64 
-9.467156,-0.761395,1.781377,0.001079,-0.001169,0.002898,19.183984,51.036640,-31.522321,30.716358
-2.07,-4.02,-7.64 
-9.467156,-0.761395,1.781377,0.001079,-0.001169,0.002898,19.183984,51.036640,-31.522321,30.716358
-2.07,-4.02,-7.65 
-9.500677,-0.775761,1.795743,0.001744,-0.001435,-0.001497,19.364967,48.683887,-31.697444,30.725341
-2.07,-4.02,-7.65 
-9.495888,-0.780550,1.781377,0.001079,0.000695,-0.001364,19.364967,48.683887,-31.697444,30.722347
-2.07,-4.03,-7.66 
-9.495888,-0.766184,1.810109,0.001345,-0.000637,0.004229,19.364967,48.683887,-31.697444,30.713361
-2.08,-4.03,-7.66 
-9.495888,-0.766184,1.810109,0.001345,-0.000637,0.004229,19.364967,48.683887,-31.697444,30.713361
-2.08,-4.04,-7.67 
-9.519831,-0.775761,1.781377,0.000812,0.001095,0.002099,19.364967,48.683887,-31.697444,30.716358
-2.08,-4.04,-7.67 
-9.515043,-0.770972,1.805320,0.000546,0.001894,0.005294,19.364967,48.683887,-31.697444,30.716358
-2.08,-4.04,-7.68 
-9.495888,-0.747029,1.814897,0.000546,0.004024,0.007691,19.364967,48.683887,-31.697444,30.707370
-2.09,-4.05,-7.68 
-9.495888,-0.747029,1.814897,0.000546,0.004024,0.007691,19.364967,48.683887,-31.697444,30.707370
-2.09,-4.05,-7.69 
-9.505466,-0.756606,1.767011,-0.000120,0.003758,0.004629,19.726928,49.769775,-31.697444,30.725341
-2.09,-4.06,-7.69 
-9.534197,-0.785338,1.767011,-0.000652,-0.000237,0.003297,19.726928,49.769775,-31.697444,30.731332
-2.09,-4.06,-7.70 
-9.553352,-0.761395,1.776588,0.000812,-0.002900,0.000634,19.726928,49.769775,-31.697444,30.713361
-2.10,-4.06,-7.70 
-9.553352,-0.761395,1.776588,0.000812,-0.002900,0.000634,19.726928,49.769775,-31.697444,30.713361
-2.10,-4.07,-7.71 
-9.515043,-0.761395,1.814897,0.002543,-0.003033,-0.003361,19.726928,49.769775,-31.697444,30.716358
-2.10,-4.07,-7.72 
-9.491100,-0.756606,1.805320,0.002011,0.000429,0.001699,19.726928,49.769775,-31.697444,30.707370
-2.10,-4.07,-7.72 
-9.500677,-0.775761,1.819686,0.000280,0.005223,0.007425,19.726928,49.769775,-31.697444,30.719352
-2.11,-4.08,-7.73 
-9.500677,-0.775761,1.819686,0.000280,0.005223,0.007425,19.726928,49.769775,-31.697444,30.719352
-2.11,-4.08,-7.73 
-9.505466,-0.770972,1.786165,-0.000519,0.005888,0.010355,20.450853,50.493698,-31.347196,30.731332
-2.11,-4.09,-7.74 
-9.510254,-0.761395,1.771800,-0.000120,0.003891,0.009156,20.450853,50.493698,-31.347196,30.716358
-2.11,-4.09,-7.74 
-9.505466,-0.761395,1.800531,0.000945,0.001228,0.002764,20.450853,50.493698,-31.347196,30.725341
-2.11,-4.09,-7.75 
-9.505466,-0.761395,1.800531,0.000945,0.001228,0.002764,20.450853,50.493698,-31.347196,30.725341
-2.12,-4.10,-7.75 
-9.500677,-0.761395,1.805320,0.001345,-0.001169,-0.000165,20.450853,50.493698,-31.347196,30.725341
-2.12,-4.10,-7.76 
-9.510254,-0.766184,1.819686,0.002543,-0.001302,-0.002429,20.450853,50.493698,-31.347196,30.725341
-2.12,-4.10,-7.76 
-9.510254,-0.766184,1.819686,0.002543,-0.001302,-0.002429,20.450853,50.493698,-31.347196,30.725341
-2.12,-4.11,-7.77 
-9.515043,-0.766184,1.805320,0.001079,0.000429,0.002365,20.450853,50.493698,-31.347196,30.725341
-2.13,-4.11,-7.77 
-9.510254,-0.751818,1.800531,0.000812,0.002160,0.004895,19.003004,50.855659,-33.098438,30.719352
-2.13,-4.12,-7.78 
-9.495888,-0.761395,1.776588,-0.000386,0.002559,0.006093,19.003004,50.855659,-33.098438,30.716358
-2.13,-4.12,-7.78 
-9.495888,-0.761395,1.776588,-0.000386,0.002559,0.006093,19.003004,50.855659,-33.098438,30.716358
-2.13,-4.12,-7.79 
-9.510254,-0.766184,1.800531,0.000280,0.001095,0.003297,19.003004,50.855659,-33.098438,30.716358
-2.13,-4.13,-7.79 
-9.505466,-0.751818,1.790954,-0.000386,0.000162,0.001300,19.003004,50.855659,-33.098438,30.725341
-2.14,-4.13,-7.80 
-9.495888,-0.761395,1.800531,0.000546,0.001760,0.002365,19.003004,50.855659,-33.098438,30.725341
-2.14,-4.13,-7.80 
-9.495888,-0.761395,1.800531,0.000546,0.001760,0.002365,19.003004,50.855659,-33.098438,30.725341
-2.14,-4.14,-7.81 
-9.495888,-0.751818,1.790954,0.000945,0.002293,0.004495,19.003004,50.855659,-33.098438,30.719352
-2.14,-4.14,-7.81 
-9.510254,-0.751818,1.810109,0.000679,0.002692,0.007026,19.003004,50.855659,-33.098438,30.719352
-2.15,-4.15,-7.82 
-9.500677,-0.751818,1.795743,0.000146,0.001894,0.003164,20.088890,51.941547,-31.697444,30.722347
-2.15,-4.15,-7.82 
-9.500677,-0.751818,1.795743,0.000146,0.001894,0.003164,20.088890,51.941547,-31.697444,30.722347
-2.15,-4.15,-7.83 
-9.495888,-0.747029,1.781377,0.000146,0.001760,0.004096,20.088890,51.941547,-31.697444,30.719352
-2.15,-4.16,-7.83 
-9.495888,-0.756606,1.795743,0.000146,0.001361,0.004495,20.088890,51.941547,-31.697444,30.731332
-2.16,-4.16,-7.84 
-9.505466,-0.751818,1.795743,0.000679,0.002027,0.005161,20.088890,51.941547,-31.697444,30.734329
-2.16,-4.16,-7.84 
-9.505466,-0.751818,1.795743,0.000679,0.002027,0.005161,20.088890,51.941547,-31.697444,30.734329
-2.16,-4.17,-7.85 
-9.500677,-0.761395,1.781377,0.000945,0.001228,0.004762,20.088890,51.941547,-31.697444,30.734329
-2.16,-4.17,-7.85 
-9.486311,-0.723086,1.795743,-0.000386,0.002027,0.004895,20.088890,51.941547,-31.697444,30.731332
-2.16,-4.18,-7.86 
-9.495888,-0.751818,1.776588,0.000280,0.000828,0.004229,19.726928,49.769775,-32.748188,30.728336
-2.17,-4.18,-7.86 
-9.495888,-0.751818,1.776588,0.000280,0.000828,0.004229,19.726928,49.769775,-32.748188,30.728336
-2.17,-4.18,-7.87 
-9.510254,-0.756606,1.781377,0.000146,0.002027,0.007026,19.726928,49.769775,-32.748188,30.734329
-2.17,-4.19,-7.87 
-9.486311,-0.747029,1.800531,0.000945,0.003891,0.006227,19.726928,49.769775,-32.748188,30.734329
-2.17,-4.19,-7.88 
-9.505466,-0.742240,1.810109,0.000945,0.001760,0.005827,19.726928,49.769775,-32.748188,30.737323
-2.18,-4.19,-7.88 
-9.505466,-0.742240,1.810109,0.000945,0.001760,0.005827,19.726928,49.769775,-32.748188,30.737323
-2.18,-4.20,-7.89 
-9.505466,-0.742240,1.810109,0.001212,0.001095,0.001300,19.726928,49.769775,-32.748188,30.713361
-2.18,-4.20,-7.89 
-9.510254,-0.737452,1.819686,0.000146,0.000828,0.001965,19.726928,49.769775,-32.748188,30.707370
-2.18,-4.21,-7.90 
-9.510254,-0.737452,1.819686,0.000146,0.000828,0.001965,19.726928,49.769775,-32.748188,30.707370
-2.18,-4.21,-7.90 
-9.515043,-0.751818,1.786165,-0.000386,0.003491,0.006759,20.631834,48.502906,-32.573066,30.719352
-2.19,-4.21,-7.91 
-9.505466,-0.751818,1.800531,0.000413,0.002692,0.006759,20.631834,48.502906,-32.573066,30.722347
-2.19,-4.22,-7.91 
-9.510254,-0.737452,1.781377,0.000546,0.001760,0.005161,20.631834,48.502906,-32.573066,30.728336
-2.19,-4.22,-7.92 
-9.510254,-0.737452,1.781377,0.000546,0.001760,0.005161,20.631834,48.502906,-32.573066,30.728336
-2.19,-4.22,-7.92 
-9.510254,-0.737452,1.795743,0.000812,-0.000637,0.001166,20.631834,48.502906,-32.573066,30.731332
-2.20,-4.23,-7.93 
-9.515043,-0.751818,1.795743,0.000945,-0.001036,0.001433,20.631834,48.502906,-32.573066,30.731332
-2.20,-4.23,-7.93 
-9.500677,-0.732663,1.795743,0.001212,-0.000637,0.002898,20.631834,48.502906,-32.573066,30.728336
-2.20,-4.24,-7.94 
-9.500677,-0.732663,1.795743,0.001212,-0.000637,0.002898,20.631834,48.502906,-32.573066,30.728336
-2.20,-4.24,-7.94 
-9.505466,-0.747029,1.824475,0.000546,0.001228,0.001566,20.631834,48.502906,-32.573066,30.722347
-2.21,-4.24,-7.95 
-9.505466,-0.747029,1.786165,-0.000253,0.001894,0.006892,20.450853,50.131736,-32.748188,30.734329
-2.21,-4.25,-7.95 
-9.500677,-0.737452,1.814897,-0.000652,0.001627,0.005561,20.450853,50.131736,-32.748188,30.731332
-2.21,-4.25,-7.96 
-9.500677,-0.737452,1.814897,-0.000652,0.001627,0.005561,20.450853,50.131736,-32.748188,30.731332
-2.21,-4.25,-7.96 
-9.500677,-0.732663,1.824475,0.000812,0.000695,0.004362,20.450853,50.131736,-32.748188,30.734329
-2.21,-4.26,-7.97 
-9.505466,-0.751818,1.800531,0.001345,-0.000637,0.001566,20.450853,50.131736,-32.748188,30.731332
-2.22,-4.26,-7.97 
-9.510254,-0.756606,1.800531,0.001478,-0.002501,-0.000298,20.450853,50.131736,-32.748188,30.725341
-2.22,-4.27,-7.98 
-9.510254,-0.756606,1.800531,0.001478,-0.002501,-0.000298,20.450853,50.131736,-32.748188,30.725341
-2.22,-4.27,-7.98 
-9.495888,-0.756606,1.795743,0.001345,-0.002767,-0.001364,20.450853,50.131736,-32.748188,30.722347
-2.22,-4.27,-7.99 
-9.505466,-0.761395,1.795743,-0.000386,0.003225,-0.000298,20.088890,50.493698,-31.697444,30.710365
-2.23,-4.28,-7.99 
-9.524621,-0.751818,1.800531,-0.000120,0.004157,0.007824,20.088890,50.493698,-31.697444,30.722347
-2.23,-4.28,-8.00 
-9.524621,-0.751818,1.800531,-0.000120,0.004157,0.007824,20.088890,50.493698,-31.697444,30.722347
-2.23,-4.28,-8.00 
-9.491100,-0.718297,1.810109,-0.000786,0.006421,0.009556,20.088890,50.493698,-31.697444,30.734329
-2.23,-4.29,-8.01 
-9.476734,-0.718297,1.781377,-0.000253,0.006155,0.006093,20.088890,50.493698,-31.697444,30.728336
-2.23,-4.29,-8.01 
-9.495888,-0.737452,1.786165,0.002410,-0.001569,0.002498,20.088890,50.493698,-31.697444,30.722347
-2.24,-4.30,-8.02 
-9.495888,-0.737452,1.786165,0.002410,-0.001569,0.002498,20.088890,50.493698,-31.697444,30.722347
-2.24,-4.30,-8.02 
-9.510254,-0.751818,1.781377,0.001079,-0.001702,-0.006157,20.088890,50.493698,-31.697444,30.713361
-2.24,-4.30,-8.03 
-9.500677,-0.751818,1.790954,0.000679,-0.000503,-0.001497,19.364967,50.493698,-32.748188,30.719352
-2.24,-4.31,-8.03 
-9.495888,-0.737452,1.776588,-0.000120,0.005089,0.007824,19.364967,50.493698,-32.748188,30.728336
-2.25,-4.31,-8.04 
-9.495888,-0.737452,1.776588,-0.000120,0.005089,0.007824,19.364967,50.493698,-32.748188,30.728336
-2.25,-4.31,-8.04 
-9.510254,-0.732663,1.767011,0.000146,0.004557,0.015015,19.364967,50.493698,-32.748188,30.734329
-2.25,-4.32,-8.05 
-9.524621,-0.727874,1.781377,-0.000652,0.003358,0.003697,19.364967,50.493698,-32.748188,30.725341
-2.25,-4.32,-8.05 
-9.524621,-0.727874,1.781377,-0.000652,0.003358,0.003697,19.364967,50.493698,-32.748188,30.725341
-2.25,-4.33,-8.06 
-9.515043,-0.751818,1.790954,0.000413,0.005089,-0.004959,19.364967,50.493698,-32.748188,30.728336
-2.26,-4.33,-8.06 
-9.500677,-0.723086,1.805320,0.002277,-0.005297,0.010621,19.364967,50.493698,-32.748188,30.731332
-2.26,-4.33,-8.07 
-9.515043,-0.723086,1.810109,0.002277,-0.003167,-0.003760,19.545948,51.036640,-32.573066,30.725341
-2.26,-4.34,-8.07 
-9.515043,-0.723086,1.810109,0.002277,-0.003167,-0.003760,19.545948,51.036640,-32.573066,30.725341
-2.26,-4.34,-8.08 
-9.495888,-0.766184,1.800531,0.000013,0.001095,-0.005891,19.545948,51.036640,-32.573066,30.731332
-2.27,-4.34,-8.08 
-9.515043,-0.732663,1.795743,-0.000253,0.000429,0.010221,19.545948,51.036640,-32.573066,30.740318
-2.27,-4.35,-8.09 
-9.491100,-0.751818,1.781377,0.000546,0.005755,0.008224,19.545948,51.036640,-32.573066,30.728336
-2.27,-4.35,-8.09 
-9.491100,-0.751818,1.781377,0.000546,0.005755,0.008224,19.545948,51.036640,-32.573066,30.728336
-2.27,-4.35,-8.10 
-9.491100,-0.727874,1.781377,0.000945,0.001361,0.008757,19.545948,51.036640,-32.573066,30.734329
-2.27,-4.36,-8.10 
-9.510254,-0.732663,1.795743,0.002277,-0.003433,0.000368,19.545948,51.036640,-32.573066,30.719352
-2.28,-4.36,-8.11 
-9.481522,-0.747029,1.829263,0.002144,-0.001302,-0.010152,19.545948,51.036640,-32.573066,30.725341
-2.28,-4.37,-8.11 
-9.481522,-0.747029,1.829263,0.002144,-0.001302,-0.010152,19.545948,51.036640,-32.573066,30.725341
-2.28,-4.37,-8.12 
-9.515043,-0.756606,1.786165,0.002144,-0.002900,-0.000431,19.003004,51.217620,-32.748188,30.725341
-2.28,-4.37,-8.12 
-9.515043,-0.737452,1.814897,-0.000919,0.003758,0.007159,19.003004,51.217620,-32.748188,30.731332
-2.29,-4.38,-8.13 
-9.505466,-0.732663,1.767011,-0.001318,0.010416,0.010887,19.003004,51.217620,-32.748188,30.725341
-2.29,-4.38,-8.13 
-9.505466,-0.732663,1.767011,-0.001318,0.010416,0.010887,19.003004,51.217620,-32.748188,30.725341
-2.29,-4.38,-8.14 
-9.519831,-0.732663,1.805320,-0.000652,0.001627,0.008091,19.003004,51.217620,-32.748188,30.716358
-2.29,-4.39,-8.14 
-9.505466,-0.737452,1.795743,0.000679,-0.004631,-0.004693,19.003004,51.217620,-32.748188,30.719352
-2.30,-4.39,-8.15 
-9.505466,-0.766184,1.805320,0.001478,-0.001702,-0.013614,19.003004,51.217620,-32.748188,30.731332
-2.30,-4.39,-8.15 
-9.505466,-0.766184,1.805320,0.001478,-0.001702,-0.013614,19.003004,51.217620,-32.748188,30.731332
-2.30,-4.40,-8.16 
-9.515043,-0.751818,1.776588,0.000812,0.000828,0.007292,19.364967,49.769775,-32.047691,30.731332
-2.30,-4.40,-8.16 
-9.500677,-0.747029,1.800531,-0.002384,0.008951,0.014083,19.364967,49.769775,-32.047691,30.740318
-2.30,-4.41,-8.17 
-9.505466,-0.737452,1.781377,-0.002117,0.009750,0.015015,19.364967,49.769775,-32.047691,30.728336
-2.31,-4.41,-8.17 
-9.505466,-0.737452,1.781377,-0.002117,0.009750,0.015015,19.364967,49.769775,-32.047691,30.728336
-2.31,-4.41,-8.17 
-9.524621,-0.732663,1.786165,0.000146,0.002826,0.009955,19.364967,49.769775,-32.047691,30.731332
-2.31,-4.42,-8.18 
-9.519831,-0.732663,1.795743,0.001878,-0.001435,-0.006956,19.364967,49.769775,-32.047691,30.734329
-2.31,-4.42,-8.18 
-9.519831,-0.732663,1.795743,0.001878,-0.001435,-0.006956,19.364967,49.769775,-32.047691,30.734329
-2.31,-4.42,-8.19 
-9.495888,-0.756606,1.805320,0.001212,-0.002234,-0.005492,19.364967,49.769775,-32.047691,30.725341
-2.32,-4.43,-8.19 
-9.505466,-0.737452,1.795743,0.000679,0.000562,0.004362,19.003004,50.855659,-32.047691,30.725341
-2.32,-4.43,-8.20 
-9.500677,-0.742240,1.781377,-0.000919,0.006288,0.009556,19.003004,50.855659,-32.047691,30.743312
-2.32,-4.43,-8.20 
-9.500677,-0.742240,1.781377,-0.000919,0.006288,0.009556,19.003004,50.855659,-32.047691,30.743312
-2.32,-4.44,-8.21 
-9.505466,-0.732663,1.800531,-0.000519,0.006021,0.010488,19.003004,50.855659,-32.047691,30.734329
-2.32,-4.44,-8.21 
-9.510254,-0.732663,1.771800,0.001345,0.001760,0.003963,19.003004,50.855659,-32.047691,30.728336
-2.33,-4.45,-8.22 
-9.515043,-0.742240,1.795743,0.002410,-0.003167,-0.004293,19.003004,50.855659,-32.047691,30.716358
-2.33,-4.45,-8.22 
-9.515043,-0.742240,1.795743,0.002410,-0.003167,-0.004293,19.003004,50.855659,-32.047691,30.716358
-2.33,-4.45,-8.23 
-9.491100,-0.737452,1.800531,0.001212,-0.002234,-0.001497,19.003004,50.855659,-32.047691,30.725341
-2.33,-4.46,-8.23 
-9.500677,-0.742240,1.800531,-0.000120,0.001627,0.003031,19.003004,50.855659,-32.047691,30.734329
-2.34,-4.46,-8.24 
-9.505466,-0.742240,1.790954,-0.001185,0.004956,0.010621,19.726928,50.855659,-32.748188,30.728336
-2.34,-4.46,-8.24 
-9.505466,-0.742240,1.790954,-0.001185,0.004956,0.010621,19.726928,50.855659,-32.748188,30.728336
-2.34,-4.47,-8.25 
-9.495888,-0.718297,1.767011,-0.001585,0.006021,0.008757,19.726928,50.855659,-32.748188,30.725341
-2.34,-4.47,-8.25 
-9.505466,-0.737452,1.781377,0.000679,0.001095,0.000634,19.726928,50.855659,-32.748188,30.737323
-2.34,-4.47,-8.26 
-9.519831,-0.751818,1.819686,0.001079,-0.002368,-0.002429,19.726928,50.855659,-32.748188,30.734329
-2.35,-4.48,-8.26 
-9.519831,-0.751818,1.819686,0.001079,-0.002368,-0.002429,19.726928,50.855659,-32.748188,30.734329
-2.35,-4.48,-8.27 
-9.515043,-0.742240,1.790954,0.000945,-0.000637,-0.001630,19.726928,50.855659,-32.748188,30.719352
-2.35,-4.49,-8.27 
-9.505466,-0.732663,1.810109,0.001212,0.000296,0.003963,19.726928,50.855659,-32.748188,30.722347
-2.35,-4.49,-8.28 
-9.515043,-0.742240,1.762222,0.000546,0.003092,0.004895,19.726928,50.131736,-33.098438,30.728336
-2.36,-4.49,-8.28 
-9.515043,-0.742240,1.762222,0.000546,0.003092,0.004895,19.726928,50.131736,-33.098438,30.728336
-2.36,-4.50,-8.29 
-9.505466,-0.732663,1.790954,0.000679,0.003758,0.006493,19.726928,50.131736,-33.098438,30.725341
-2.36,-4.50,-8.29 
-9.510254,-0.727874,1.810109,0.001345,0.001760,0.004629,19.726928,50.131736,-33.098438,30.722347
-2.36,-4.50,-8.29 
-9.495888,-0.732663,1.795743,0.000546,0.000429,0.001566,19.726928,50.131736,-33.098438,30.722347
-2.37,-4.51,-8.30 
-9.495888,-0.732663,1.795743,0.000546,0.000429,0.001566,19.726928,50.131736,-33.098438,30.722347
-2.37,-4.51,-8.30 
-9.505466,-0.747029,1.790954,0.000280,0.000562,0.001566,19.726928,50.131736,-33.098438,30.728336
-2.37,-4.51,-8.31 
-9.510254,-0.751818,1.805320,0.001079,-0.000503,0.002232,19.726928,50.131736,-33.098438,30.725341
-2.37,-4.52,-8.31 
-9.510254,-0.751818,1.805320,0.001079,-0.000503,0.002232,19.726928,50.131736,-33.098438,30.725341
-2.37,-4.52,-8.32 
-9.510254,-0.737452,1.781377,0.000280,0.001228,0.002365,20.812814,50.493698,-32.047691,30.719352
-2.38,-4.52,-8.32 
-9.495888,-0.732663,1.790954,0.000679,0.001361,0.002232,20.812814,50.493698,-32.047691,30.731332
-2.38,-4.53,-8.33 
-9.495888,-0.737452,1.800531,0.000280,0.001627,0.003830,20.812814,50.493698,-32.047691,30.728336
-2.38,-4.53,-8.33 
-9.495888,-0.737452,1.800531,0.000280,0.001627,0.003830,20.812814,50.493698,-32.047691,30.728336
-2.38,-4.54,-8.34 
-9.505466,-0.732663,1.790954,0.000280,0.003092,0.003430,20.812814,50.493698,-32.047691,30.731332
-2.38,-4.54,-8.34 
-9.510254,-0.732663,1.814897,-0.000120,0.001894,0.003563,20.812814,50.493698,-32.047691,30.728336
-2.39,-4.54,-8.35 
-9.519831,-0.732663,1.786165,0.001478,0.000695,0.003563,20.812814,50.493698,-32.047691,30.734329
-2.39,-4.55,-8.35 
-9.519831,-0.732663,1.786165,0.001478,0.000695,0.003563,20.812814,50.493698,-32.047691,30.734329
-2.39,-4.55,-8.36 
-9.510254,-0.732663,1.781377,0.000945,0.001361,0.001433,18.822023,49.588790,-31.522321,30.728336
-2.39,-4.55,-8.36 
-9.562930,-0.761395,1.795743,0.000812,0.000429,0.001832,18.822023,49.588790,-31.522321,30.722347
-2.40,-4.56,-8.37 
-9.529409,-0.742240,1.781377,-0.000120,0.002293,0.005161,18.822023,49.588790,-31.522321,30.734329
-2.40,-4.56,-8.37 
-9.529409,-0.742240,1.781377,-0.000120,0.002293,0.005161,18.822023,49.588790,-31.522321,30.734329
-2.40,-4.56,-8.38 
-9.500677,-0.727874,1.786165,0.000280,0.003092,0.001566,18.822023,49.588790,-31.522321,30.737323
-2.40,-4.57,-8.38 
-9.500677,-0.732663,1.786165,0.001744,-0.000104,0.005294,18.822023,49.588790,-31.522321,30.719352
-2.40,-4.57,-8.38 
-9.486311,-0.727874,1.776588,0.000812,0.001095,0.003697,18.822023,49.588790,-31.522321,30.731332
-2.41,-4.57,-8.39 
-9.486311,-0.727874,1.776588,0.000812,0.001095,0.003697,18.822023,49.588790,-31.522321,30.731332
-2.41,-4.58,-8.39 
-9.510254,-0.747029,1.800531,-0.000386,0.001627,0.003963,18.822023,49.588790,-31.522321,30.728336
-2.41,-4.58,-8.40 
-9.495888,-0.713508,1.762222,-0.000386,0.002293,0.007691,18.822023,51.036640,-32.923313,30.716358
-2.41,-4.58,-8.40 
-9.505466,-0.727874,1.786165,-0.000120,0.001894,0.003563,18.822023,51.036640,-32.923313,30.731332
-2.41,-4.59,-8.41 
-9.505466,-0.727874,1.786165,-0.000120,0.001894,0.003563,18.822023,51.036640,-32.923313,30.731332
-2.42,-4.59,-8.41 
-9.515043,-0.732663,1.795743,0.000013,0.001361,0.002498,18.822023,51.036640,-32.923313,30.737323
-2.42,-4.60,-8.42 
-9.481522,-0.718297,1.800531,0.001478,-0.001169,-0.001364,18.822023,51.036640,-32.923313,30.725341
-2.42,-4.60,-8.42 
-9.491100,-0.723086,1.805320,-0.001185,0.001760,0.002631,18.822023,51.036640,-32.923313,30.734329
-2.42,-4.60,-8.43 
-9.491100,-0.723086,1.805320,-0.001185,0.001760,0.002631,18.822023,51.036640,-32.923313,30.734329
-2.43,-4.61,-8.43 
-9.515043,-0.742240,1.795743,-0.001585,0.000296,0.000234,18.822023,51.036640,-32.923313,30.731332
-2.43,-4.61,-8.44 
-9.505466,-0.737452,1.781377,0.000945,-0.000637,-0.000298,19.364967,51.941547,-33.098438,30.728336
-2.43,-4.61,-8.44 
-9.505466,-0.732663,1.800531,0.001478,0.000429,0.002099,19.364967,51.941547,-33.098438,30.734329
-2.43,-4.62,-8.45 
-9.505466,-0.732663,1.800531,0.001478,0.000429,0.002099,19.364967,51.941547,-33.098438,30.734329
-2.43,-4.62,-8.45 
-9.505466,-0.742240,1.805320,0.000679,0.001894,0.000767,19.364967,51.941547,-33.098438,30.734329
-2.44,-4.62,-8.46 
-9.505466,-0.713508,1.781377,-0.000253,0.002559,0.007026,19.364967,51.941547,-33.098438,30.737323
-2.44,-4.63,-8.46 
-9.505466,-0.713508,1.781377,-0.000253,0.002559,0.007026,19.364967,51.941547,-33.098438,30.737323
-2.44,-4.63,-8.46 
-9.500677,-0.732663,1.805320,-0.001052,0.002293,0.001965,19.364967,51.941547,-33.098438,30.725341
-2.44,-4.63,-8.47 
-9.515043,-0.718297,1.781377,-0.001052,0.001894,0.005294,19.364967,51.941547,-33.098438,30.740318
-2.45,-4.64,-8.47 
-9.582084,-0.732663,1.877150,0.002943,-0.001702,-0.000431,19.003004,48.683887,-31.697444,30.740318
-2.45,-4.64,-8.48 
-9.582084,-0.732663,1.877150,0.002943,-0.001702,-0.000431,19.003004,48.683887,-31.697444,30.740318
-2.45,-4.65,-8.48 
-9.467156,-0.694354,1.786165,-0.000919,0.003225,0.003164,19.003004,48.683887,-31.697444,30.731332
-2.45,-4.65,-8.49 
-9.419270,-0.694354,1.704759,-0.001851,0.004690,0.003563,19.003004,48.683887,-31.697444,30.731332
-2.45,-4.65,-8.49 
-9.486311,-0.742240,1.790954,0.002543,-0.000770,0.003031,19.003004,48.683887,-31.697444,30.734329
-2.46,-4.66,-8.50 
-9.486311,-0.742240,1.790954,0.002543,-0.000770,0.003031,19.003004,48.683887,-31.697444,30.734329
-2.46,-4.66,-8.50 
-9.538986,-0.737452,1.829263,0.000413,-0.000237,0.003830,19.003004,48.683887,-31.697444,30.731332
-2.46,-4.66,-8.51 
-9.505466,-0.727874,1.805320,0.000013,0.001361,0.001033,19.003004,48.683887,-31.697444,30.725341
-2.46,-4.67,-8.51 
-9.495888,-0.732663,1.767011,0.000546,0.001361,0.005028,19.003004,50.131736,-32.047691,30.731332
-2.47,-4.67,-8.52 
-9.495888,-0.732663,1.767011,0.000546,0.001361,0.005028,19.003004,50.131736,-32.047691,30.731332
-2.47,-4.67,-8.52 
-9.519831,-0.727874,1.776588,0.001079,0.001494,0.003164,19.003004,50.131736,-32.047691,30.740318
-2.47,-4.68,-8.52 
-9.524621,-0.727874,1.805320,0.000812,0.000828,0.004495,19.003004,50.131736,-32.047691,30.740318
-2.47,-4.68,-8.53 
-9.529409,-0.732663,1.795743,0.001212,-0.000104,0.003563,19.003004,50.131736,-32.047691,30.743312
-2.47,-4.68,-8.53 
-9.529409,-0.732663,1.795743,0.001212,-0.000104,0.003563,19.003004,50.131736,-32.047691,30.743312
-2.48,-4.69,-8.54 
-9.515043,-0.732663,1.805320,0.000546,0.000029,0.005028,19.003004,50.131736,-32.047691,30.737323
-2.48,-4.69,-8.54 
-9.515043,-0.727874,1.805320,0.001212,-0.000370,0.004096,19.003004,50.131736,-32.047691,30.728336
-2.48,-4.69,-8.55 
-9.510254,-0.732663,1.800531,0.001611,-0.001036,0.004495,19.003004,50.131736,-32.047691,30.734329
-2.48,-4.70,-8.55 
-9.510254,-0.732663,1.800531,0.001611,-0.001036,0.004495,19.003004,50.131736,-32.047691,30.734329
-2.49,-4.70,-8.56 
-9.515043,-0.708720,1.790954,0.002011,-0.001302,0.004629,20.269870,48.864868,-32.923313,30.725341
-2.49,-4.70,-8.56 
-9.505466,-0.727874,1.795743,0.002011,-0.000770,0.002498,20.269870,48.864868,-32.923313,30.731332
-2.49,-4.71,-8.57 
-9.505466,-0.727874,1.795743,0.002011,-0.000770,0.002498,20.269870,48.864868,-32.923313,30.731332
-2.49,-4.71,-8.57 
-9.486311,-0.727874,1.805320,0.000945,-0.000237,0.006227,20.269870,48.864868,-32.923313,30.746307
-2.49,-4.72,-8.57 
-9.505466,-0.718297,1.810109,-0.000386,0.002826,0.003830,20.269870,48.864868,-32.923313,30.743312
-2.50,-4.72,-8.58 
-9.495888,-0.713508,1.776588,-0.001318,0.004557,0.002099,20.269870,48.864868,-32.923313,30.737323
-2.50,-4.72,-8.58 
-9.495888,-0.713508,1.776588,-0.001318,0.004557,0.002099,20.269870,48.864868,-32.923313,30.737323
-2.50,-4.73,-8.59 
-9.515043,-0.723086,1.795743,-0.001185,0.002160,0.005694,20.269870,48.864868,-32.923313,30.725341
-2.50,-4.73,-8.59 
-9.515043,-0.718297,1.762222,0.000013,0.002027,0.004362,19.364967,48.683887,-32.748188,30.731332
-2.50,-4.73,-8.60 
-9.491100,-0.742240,1.786165,0.000812,0.001894,0.000501,19.364967,48.683887,-32.748188,30.743312
-2.51,-4.74,-8.60 
-9.491100,-0.742240,1.786165,0.000812,0.001894,0.000501,19.364967,48.683887,-32.748188,30.743312
-2.51,-4.74,-8.61 
-9.515043,-0.718297,1.800531,0.001878,-0.002234,0.000368,19.364967,48.683887,-32.748188,30.734329
-2.51,-4.74,-8.61 
-9.495888,-0.732663,1.810109,0.000679,-0.001702,-0.002961,19.364967,48.683887,-32.748188,30.734329
-2.51,-4.75,-8.61 
-9.500677,-0.727874,1.790954,-0.000253,0.004157,0.001832,19.364967,48.683887,-32.748188,30.728336
-2.51,-4.75,-8.62 
-9.500677,-0.727874,1.790954,-0.000253,0.004157,0.001832,19.364967,48.683887,-32.748188,30.728336
