AcclerometerX,AcclerometerY,AcclerometerZ,GyroscopeX,GyroscopeY,GyroscopeZ,MagnetometerX,MagnetometerY,MagnetometerZ,Roll,Pitch,Yaw
-9.682645,-0.067041,0.38788,0.021399,0.023011,-0.05189,22.984586,45.064266,-37.65166,0.01,0,-0.01
-9.682645,-0.067041,0.38788,0.021399,0.023011,-0.05189,22.984586,45.064266,-37.65166,0,0,-0.02
-9.639548,-0.172391,0.45971,0.027524,-0.017203,-0.030851,22.984586,45.064266,-37.65166,0,-0.01,-0.03
-9.730532,0.009577,0.464499,0.036046,-0.000292,0.07874,22.984586,45.064266,-37.65166,0,-0.01,-0.03
-9.730532,0.009577,0.464499,0.036046,-0.000292,0.07874,22.984586,45.064266,-37.65166,-0.01,-0.01,-0.03
-9.7018,-0.062252,0.445344,0.034315,0.007432,0.009364,22.984586,45.064266,-37.65166,-0.01,-0.01,-0.04
-9.682645,-0.081407,0.464499,0.030454,-0.015339,0.008165,23.889492,45.607212,-38.527282,-0.01,-0.02,-0.04
-9.682645,-0.081407,0.464499,0.030454,-0.015339,0.008165,23.889492,45.607212,-38.527282,-0.02,-0.02,-0.05
-9.677857,-0.086196,0.397458,0.037112,0.014889,0.042521,23.889492,45.607212,-38.527282,-0.02,-0.02,-0.05
-9.725744,-0.028732,0.498019,0.032851,-0.011344,0.05597,23.889492,45.607212,-38.527282,-0.02,-0.03,-0.06
-9.725744,-0.028732,0.498019,0.032851,-0.011344,0.05597,23.889492,45.607212,-38.527282,-0.02,-0.03,-0.06
-9.682645,-0.067041,0.445344,0.034715,0.008097,0.025876,23.889492,45.607212,-38.527282,-0.03,-0.03,-0.07
-9.697011,-0.067041,0.445344,0.033117,-0.003221,0.032401,23.889492,45.607212,-38.527282,-0.03,-0.04,-0.07
-9.7018,-0.014366,0.45971,0.03365,0.000374,0.047048,23.889492,45.607212,-38.527282,-0.03,-0.04,-0.08
-9.7018,-0.014366,0.45971,0.03365,0.000374,0.047048,23.889492,45.607212,-38.527282,-0.03,-0.04,-0.08
-9.697011,-0.043098,0.454922,0.034981,0.000907,0.027607,23.889492,45.607212,-38.527282,-0.04,-0.04,-0.08
-9.716166,-0.052675,0.450133,0.032717,-0.003887,0.025077,21.71772,51.398601,-37.126289,-0.04,-0.05,-0.09
-9.716166,-0.052675,0.450133,0.032717,-0.003887,0.025077,21.71772,51.398601,-37.126289,-0.04,-0.05,-0.09
-9.706589,-0.052675,0.445344,0.034049,0.002505,0.032134,21.71772,51.398601,-37.126289,-0.05,-0.05,-0.1
-9.711378,-0.033521,0.454922,0.033383,-0.001224,0.034931,21.71772,51.398601,-37.126289,-0.05,-0.06,-0.1
-9.711378,-0.033521,0.454922,0.033383,-0.001224,0.034931,21.71772,51.398601,-37.126289,-0.05,-0.06,-0.11
-9.7018,-0.033521,0.450133,0.033916,0.00064,0.020017,21.71772,51.398601,-37.126289,-0.05,-0.06,-0.11
-9.7018,-0.057464,0.45971,0.033117,-0.001357,0.016022,21.71772,51.398601,-37.126289,-0.06,-0.06,-0.12
-9.7018,-0.057464,0.45971,0.033117,-0.001357,0.016022,21.71772,51.398601,-37.126289,-0.06,-0.07,-0.13
-9.682645,-0.028732,0.440556,0.032984,-0.001357,0.02774,21.71772,51.398601,-37.126289,-0.06,-0.07,-0.13
-9.687434,-0.052675,0.42619,0.032851,-0.000558,0.018152,21.8987,50.493698,-37.301414,-0.07,-0.07,-0.14
-9.687434,-0.062252,0.435767,0.032984,-0.000824,0.024145,21.8987,50.493698,-37.301414,-0.07,-0.07,-0.14
-9.687434,-0.062252,0.435767,0.032984,-0.000824,0.024145,21.8987,50.493698,-37.301414,-0.07,-0.08,-0.15
-9.682645,-0.033521,0.464499,0.03365,-0.000025,0.031868,21.8987,50.493698,-37.301414,-0.08,-0.08,-0.15
-9.7018,-0.019155,0.430978,0.03365,-0.000025,0.028805,21.8987,50.493698,-37.301414,-0.08,-0.08,-0.16
-9.7018,-0.019155,0.430978,0.03365,-0.000025,0.028805,21.8987,50.493698,-37.301414,-0.08,-0.08,-0.16
-9.682645,-0.028732,0.464499,0.033916,-0.001091,0.025476,21.8987,50.493698,-37.301414,-0.08,-0.09,-0.17
-9.687434,-0.028732,0.464499,0.033783,-0.000025,0.022946,21.8987,50.493698,-37.301414,-0.09,-0.09,-0.17
-9.687434,-0.028732,0.464499,0.033783,-0.000025,0.022946,21.8987,50.493698,-37.301414,-0.09,-0.09,-0.18
-9.697011,-0.033521,0.430978,0.03325,-0.000824,0.027607,20.631834,49.226829,-36.425792,-0.09,-0.1,-0.19
-9.716166,-0.019155,0.445344,0.034848,0.001573,0.032933,20.631834,49.226829,-36.425792,-0.1,-0.1,-0.19
-9.716166,-0.019155,0.445344,0.034848,0.001573,0.032933,20.631834,49.226829,-36.425792,-0.1,-0.1,-0.19
-9.706589,-0.028732,0.445344,0.032851,-0.000425,0.026009,20.631834,49.226829,-36.425792,-0.1,-0.1,-0.2
-9.682645,-0.028732,0.464499,0.033516,-0.000824,0.021082,20.631834,49.226829,-36.425792,-0.1,-0.11,-0.21
-9.677857,-0.014366,0.45971,0.034315,0.00104,0.022147,20.631834,49.226829,-36.425792,-0.11,-0.11,-0.21
-9.677857,-0.014366,0.45971,0.034315,0.00104,0.022147,20.631834,49.226829,-36.425792,-0.11,-0.11,-0.22
-9.692223,-0.033521,0.483653,0.032984,-0.002289,0.020549,20.631834,49.226829,-36.425792,-0.11,-0.11,-0.22
-9.706589,-0.033521,0.450133,0.033783,0.001573,0.028805,20.631834,49.226829,-36.425792,-0.12,-0.12,-0.23
-9.706589,-0.033521,0.450133,0.033783,0.001573,0.028805,20.631834,49.226829,-36.425792,-0.12,-0.12,-0.23
-9.692223,0.004789,0.440556,0.034182,-0.002289,0.030403,20.26987,51.760562,-39.578025,-0.12,-0.12,-0.24
-9.706589,-0.019155,0.440556,0.03365,-0.001091,0.015356,20.26987,51.760562,-39.578025,-0.12,-0.13,-0.24
-9.706589,-0.019155,0.440556,0.03365,-0.001091,0.015356,20.26987,51.760562,-39.578025,-0.13,-0.13,-0.25
-9.7018,-0.028732,0.454922,0.034582,0.000241,0.022946,20.26987,51.760562,-39.578025,-0.13,-0.13,-0.25
-9.692223,0,0.469287,0.033783,-0.000824,0.030004,20.26987,51.760562,-39.578025,-0.13,-0.13,-0.26
-9.692223,0,0.469287,0.033783,-0.000824,0.030004,20.26987,51.760562,-39.578025,-0.14,-0.14,-0.26
-9.697011,-0.009577,0.440556,0.034315,-0.000025,0.022147,20.26987,51.760562,-39.578025,-0.14,-0.14,-0.27
-9.692223,-0.004789,0.469287,0.034049,-0.000425,0.020816,20.26987,51.760562,-39.578025,-0.14,-0.14,-0.27
-9.687434,-0.014366,0.421401,0.032984,-0.000691,0.024944,22.984586,54.47528,-38.001907,-0.15,-0.14,-0.28
-9.687434,-0.014366,0.421401,0.032984,-0.000691,0.024944,22.984586,54.47528,-38.001907,-0.15,-0.15,-0.29
-9.692223,-0.019155,0.450133,0.03325,-0.00149,0.020816,22.984586,54.47528,-38.001907,-0.15,-0.15,-0.29
-9.682645,-0.004789,0.469287,0.033916,-0.000425,0.02228,22.984586,54.47528,-38.001907,-0.15,-0.15,-0.3
-9.682645,-0.004789,0.469287,0.033916,-0.000425,0.02228,22.984586,54.47528,-38.001907,-0.16,-0.15,-0.3
-9.692223,-0.019155,0.440556,0.033117,-0.001357,0.019084,22.984586,54.47528,-38.001907,-0.16,-0.16,-0.31
-9.687434,-0.004789,0.445344,0.034449,0.000507,0.028006,22.984586,54.47528,-38.001907,-0.16,-0.16,-0.31
-9.687434,-0.004789,0.445344,0.034449,0.000507,0.028006,22.984586,54.47528,-38.001907,-0.17,-0.16,-0.32
-9.706589,0,0.450133,0.03365,-0.001756,0.02734,22.984586,54.47528,-38.001907,-0.17,-0.17,-0.32
-9.697011,-0.019155,0.445344,0.03325,-0.000558,0.010429,21.174776,53.751354,-39.4029,-0.17,-0.17,-0.33
-9.697011,-0.019155,0.445344,0.03325,-0.000558,0.010429,21.174776,53.751354,-39.4029,-0.17,-0.17,-0.34
-9.692223,-0.019155,0.430978,0.03365,-0.000025,0.021215,21.174776,53.751354,-39.4029,-0.18,-0.17,-0.34
-9.692223,0.004789,0.454922,0.034449,-0.000425,0.030403,21.174776,53.751354,-39.4029,-0.18,-0.18,-0.35
-9.692223,0.004789,0.454922,0.034449,-0.000425,0.030403,21.174776,53.751354,-39.4029,-0.18,-0.18,-0.35
-9.697011,0,0.45971,0.033117,0.000374,0.017487,21.174776,53.751354,-39.4029,-0.19,-0.18,-0.36
-9.697011,-0.014366,0.435767,0.033117,-0.000824,0.016821,21.174776,53.751354,-39.4029,-0.19,-0.18,-0.36
-9.682645,0.009577,0.450133,0.033916,0.000774,0.025476,21.174776,53.751354,-39.4029,-0.19,-0.19,-0.37
-9.682645,0.009577,0.450133,0.033916,0.000774,0.025476,21.174776,53.751354,-39.4029,-0.2,-0.19,-0.37
-9.697011,-0.004789,0.450133,0.03325,-0.002289,0.021215,20.993795,52.84645,-38.177032,-0.2,-0.19,-0.38
-9.687434,-0.023943,0.440556,0.03325,-0.000691,0.016155,20.993795,52.84645,-38.177032,-0.2,-0.19,-0.39
-9.687434,-0.023943,0.440556,0.03325,-0.000691,0.016155,20.993795,52.84645,-38.177032,-0.2,-0.2,-0.39
-9.687434,-0.004789,0.45971,0.033783,-0.000425,0.027873,20.993795,52.84645,-38.177032,-0.21,-0.2,-0.4
-9.692223,0.004789,0.45971,0.034848,-0.000158,0.024677,20.993795,52.84645,-38.177032,-0.21,-0.2,-0.4
-9.692223,0.004789,0.45971,0.034848,-0.000158,0.024677,20.993795,52.84645,-38.177032,-0.21,-0.21,-0.41
-9.716166,-0.038309,0.478865,0.034049,-0.000025,0.012426,20.993795,52.84645,-38.177032,-0.22,-0.21,-0.41
-9.692223,0.004789,0.474076,0.034582,-0.000025,0.021615,20.993795,52.84645,-38.177032,-0.22,-0.21,-0.42
-9.692223,0.004789,0.474076,0.034582,-0.000025,0.021615,20.993795,52.84645,-38.177032,-0.22,-0.21,-0.42
-9.7018,-0.004789,0.450133,0.034182,-0.000025,0.022147,20.993795,52.84645,-38.177032,-0.23,-0.22,-0.43
-9.673069,-0.009577,0.450133,0.035114,-0.002023,0.016022,20.450853,47.598003,-34.849678,-0.23,-0.22,-0.44
-9.673069,-0.009577,0.450133,0.035114,-0.002023,0.016022,20.450853,47.598003,-34.849678,-0.23,-0.22,-0.44
-9.735321,-0.028732,0.478865,0.033916,0.001573,0.021615,20.450853,47.598003,-34.849678,-0.23,-0.22,-0.45
-9.682645,0.019155,0.464499,0.034182,-0.000957,0.032134,20.450853,47.598003,-34.849678,-0.24,-0.23,-0.45
-9.687434,-0.009577,0.445344,0.033117,-0.002422,0.009097,20.450853,47.598003,-34.849678,-0.24,-0.23,-0.46
-9.687434,-0.009577,0.445344,0.033117,-0.002422,0.009097,20.450853,47.598003,-34.849678,-0.24,-0.23,-0.46
-9.697011,-0.014366,0.440556,0.033916,0.001439,0.022813,20.450853,47.598003,-34.849678,-0.25,-0.23,-0.47
-9.725744,0.009577,0.450133,0.033516,-0.00189,0.034398,20.450853,47.598003,-34.849678,-0.25,-0.24,-0.47
-9.725744,0.009577,0.450133,0.033516,-0.00189,0.034398,20.450853,47.598003,-34.849678,-0.25,-0.24,-0.48
-9.682645,-0.004789,0.440556,0.035247,0.002638,0.015223,22.984586,50.131736,-34.499427,-0.25,-0.24,-0.49
-9.7018,-0.014366,0.469287,0.033783,-0.003221,0.019084,22.984586,50.131736,-34.499427,-0.26,-0.25,-0.49
-9.7018,-0.014366,0.469287,0.033783,-0.003221,0.019084,22.984586,50.131736,-34.499427,-0.26,-0.25,-0.5
-9.687434,-0.014366,0.445344,0.034182,-0.000824,0.01722,22.984586,50.131736,-34.499427,-0.26,-0.25,-0.5
-9.687434,-0.019155,0.45971,0.033516,-0.001357,0.02774,22.984586,50.131736,-34.499427,-0.26,-0.25,-0.51
-9.687434,-0.019155,0.45971,0.033516,-0.001357,0.02774,22.984586,50.131736,-34.499427,-0.27,-0.26,-0.51
-9.682645,0,0.464499,0.033117,-0.000158,0.026408,22.984586,50.131736,-34.499427,-0.27,-0.26,-0.52
-9.682645,0.004789,0.464499,0.033117,-0.000824,0.015356,22.984586,50.131736,-34.499427,-0.27,-0.26,-0.53
-9.682645,0.004789,0.464499,0.033117,-0.000824,0.015356,22.984586,50.131736,-34.499427,-0.28,-0.26,-0.53
-9.706589,-0.009577,0.450133,0.032451,-0.002156,0.016688,21.8987,49.40781,-35.199924,-0.28,-0.27,-0.54
-9.706589,0.009577,0.445344,0.033383,0.001306,0.024145,21.8987,49.40781,-35.199924,-0.28,-0.27,-0.54
-9.682645,0.004789,0.445344,0.033916,-0.001756,0.021215,21.8987,49.40781,-35.199924,-0.28,-0.27,-0.55
-9.682645,0.004789,0.445344,0.033916,-0.001756,0.021215,21.8987,49.40781,-35.199924,-0.29,-0.27,-0.55
-9.682645,-0.004789,0.45971,0.034449,-0.000691,0.016954,21.8987,49.40781,-35.199924,-0.29,-0.28,-0.56
-9.682645,0.014366,0.464499,0.034182,-0.000292,0.026142,21.8987,49.40781,-35.199924,-0.29,-0.28,-0.57
-9.682645,0.014366,0.464499,0.034182,-0.000292,0.026142,21.8987,49.40781,-35.199924,-0.3,-0.28,-0.57
-9.692223,0.004789,0.469287,0.033783,-0.001357,0.023079,21.8987,49.40781,-35.199924,-0.3,-0.28,-0.58
-9.677857,0.014366,0.430978,0.033916,0.000774,0.022413,21.355756,49.950756,-36.075546,-0.3,-0.29,-0.58
-9.677857,0.014366,0.430978,0.033916,0.000774,0.022413,21.355756,49.950756,-36.075546,-0.3,-0.29,-0.59
-9.711378,0.009577,0.440556,0.033383,-0.001756,0.017353,21.355756,49.950756,-36.075546,-0.31,-0.29,-0.59
-9.677857,-0.009577,0.445344,0.033383,0.000241,0.016554,21.355756,49.950756,-36.075546,-0.31,-0.29,-0.6
-9.677857,-0.009577,0.445344,0.033383,0.000241,0.016554,21.355756,49.950756,-36.075546,-0.31,-0.3,-0.61
-9.7018,0.009577,0.464499,0.033117,0.000241,0.026675,21.355756,49.950756,-36.075546,-0.32,-0.3,-0.61
-9.706589,0.014366,0.454922,0.034049,-0.000158,0.02481,21.355756,49.950756,-36.075546,-0.32,-0.3,-0.62
-9.692223,0.014366,0.445344,0.033783,0.000108,0.019351,21.355756,49.950756,-36.075546,-0.32,-0.3,-0.62
-9.692223,0.014366,0.445344,0.033783,0.000108,0.019351,21.355756,49.950756,-36.075546,-0.32,-0.31,-0.63
-9.692223,-0.004789,0.469287,0.03365,-0.001091,0.022147,21.355756,49.950756,-36.075546,-0.33,-0.31,-0.63
-9.7018,0.023943,0.430978,0.03365,-0.000691,0.021215,21.355756,47.055057,-31.172073,-0.33,-0.31,-0.64
-9.7018,0.023943,0.430978,0.03365,-0.000691,0.021215,21.355756,47.055057,-31.172073,-0.33,-0.32,-0.64
-9.687434,0.009577,0.440556,0.033516,-0.000957,0.01722,21.355756,47.055057,-31.172073,-0.33,-0.32,-0.65
-9.692223,0.014366,0.469287,0.033783,-0.001091,0.018818,21.355756,47.055057,-31.172073,-0.34,-0.32,-0.66
-9.692223,0.014366,0.469287,0.033783,-0.001091,0.018818,21.355756,47.055057,-31.172073,-0.34,-0.32,-0.66
-9.7018,0.004789,0.445344,0.034049,0.001173,0.022147,21.355756,47.055057,-31.172073,-0.34,-0.33,-0.67
-9.716166,0,0.440556,0.034182,-0.001357,0.02228,21.355756,47.055057,-31.172073,-0.35,-0.33,-0.67
-9.716166,0,0.440556,0.034182,-0.001357,0.02228,21.355756,47.055057,-31.172073,-0.35,-0.33,-0.68
-9.7018,-0.004789,0.430978,0.034449,-0.000158,0.019084,21.355756,47.055057,-31.172073,-0.35,-0.33,-0.69
-9.697011,0,0.445344,0.034981,-0.000025,0.020816,22.079681,46.693096,-31.522321,-0.35,-0.33,-0.69
-9.697011,0,0.445344,0.034981,-0.000025,0.020816,22.079681,46.693096,-31.522321,-0.36,-0.34,-0.7
-9.7018,0.004789,0.450133,0.034449,-0.000957,0.021082,22.079681,46.693096,-31.522321,-0.36,-0.34,-0.7
-9.7018,0.004789,0.440556,0.034715,0.000507,0.020816,22.079681,46.693096,-31.522321,-0.36,-0.34,-0.71
-9.692223,0.004789,0.435767,0.034715,-0.001224,0.016821,22.079681,46.693096,-31.522321,-0.36,-0.34,-0.72
-9.692223,0.004789,0.435767,0.034715,-0.001224,0.016821,22.079681,46.693096,-31.522321,-0.37,-0.35,-0.72
-9.697011,0.014366,0.450133,0.034848,-0.000292,0.019084,22.079681,46.693096,-31.522321,-0.37,-0.35,-0.73
-9.687434,0.004789,0.474076,0.033516,0.000108,0.023479,22.079681,46.693096,-31.522321,-0.37,-0.35,-0.73
-9.687434,0.004789,0.474076,0.033516,0.000108,0.023479,22.079681,46.693096,-31.522321,-0.37,-0.35,-0.74
-9.677857,0.019155,0.435767,0.033783,-0.00149,0.018685,21.71772,47.417018,-31.522321,-0.38,-0.36,-0.75
-9.740109,-0.047886,0.45971,0.034449,0.000907,0.018152,21.71772,47.417018,-31.522321,-0.38,-0.36,-0.75
-9.740109,-0.047886,0.45971,0.034449,0.000907,0.018152,21.71772,47.417018,-31.522321,-0.38,-0.36,-0.76
-9.682645,0.057464,0.435767,0.036579,0.003437,0.043053,21.71772,47.417018,-31.522321,-0.38,-0.36,-0.76
-9.697011,0.014366,0.474076,0.032717,-0.006816,-0.003286,21.71772,47.417018,-31.522321,-0.39,-0.37,-0.77
-9.697011,0.014366,0.474076,0.032717,-0.006816,-0.003286,21.71772,47.417018,-31.522321,-0.39,-0.37,-0.78
-9.687434,-0.043098,0.474076,0.033516,0.004103,0.002839,21.71772,47.417018,-31.522321,-0.39,-0.37,-0.78
-9.725744,0.043098,0.478865,0.034582,-0.001623,0.05304,21.71772,47.417018,-31.522321,-0.39,-0.37,-0.79
-9.682645,0.009577,0.469287,0.033383,0.001306,0.014158,21.71772,47.417018,-31.522321,-0.4,-0.38,-0.79
-9.682645,0.009577,0.469287,0.033383,0.001306,0.014158,21.71772,47.417018,-31.522321,-0.4,-0.38,-0.8
-9.687434,0,0.454922,0.032318,-0.001224,0.009364,21.174776,45.788192,-32.748188,-0.4,-0.38,-0.81
-9.692223,0.009577,0.454922,0.03325,-0.002422,0.023612,21.174776,45.788192,-32.748188,-0.41,-0.38,-0.81
-9.692223,0.009577,0.454922,0.03325,-0.002422,0.023612,21.174776,45.788192,-32.748188,-0.41,-0.39,-0.82
-9.692223,0.019155,0.45971,0.033916,0.00064,0.017753,21.174776,45.788192,-32.748188,-0.41,-0.39,-0.82
-9.692223,0,0.464499,0.032851,-0.003221,0.015755,21.174776,45.788192,-32.748188,-0.41,-0.39,-0.83
-9.692223,0,0.464499,0.032851,-0.003221,0.015755,21.174776,45.788192,-32.748188,-0.42,-0.39,-0.84
-9.7018,0,0.464499,0.034049,0.000774,0.021881,21.174776,45.788192,-32.748188,-0.42,-0.4,-0.84
-9.687434,0.028732,0.469287,0.03365,-0.000292,0.031468,21.174776,45.788192,-32.748188,-0.42,-0.4,-0.85
-9.687434,0.028732,0.469287,0.03365,-0.000292,0.031468,21.174776,45.788192,-32.748188,-0.43,-0.4,-0.85
-9.682645,-0.004789,0.42619,0.034582,-0.000292,0.016022,22.622625,46.512115,-35.550174,-0.43,-0.4,-0.86
-9.697011,-0.004789,0.445344,0.034182,-0.000292,0.021215,22.622625,46.512115,-35.550174,-0.43,-0.41,-0.86
-9.697011,-0.004789,0.445344,0.034182,-0.000292,0.021215,22.622625,46.512115,-35.550174,-0.43,-0.41,-0.87
-9.692223,0.014366,0.445344,0.03325,-0.000957,0.021615,22.622625,46.512115,-35.550174,-0.44,-0.41,-0.87
-9.7018,0.023943,0.450133,0.03325,0.001173,0.017087,22.622625,46.512115,-35.550174,-0.44,-0.42,-0.88
-9.697011,0.023943,0.445344,0.032851,-0.002023,0.016954,22.622625,46.512115,-35.550174,-0.44,-0.42,-0.89
-9.697011,0.023943,0.445344,0.032851,-0.002023,0.016954,22.622625,46.512115,-35.550174,-0.45,-0.42,-0.89
-9.687434,-0.004789,0.474076,0.034049,0.000774,0.015356,22.622625,46.512115,-35.550174,-0.45,-0.42,-0.9
-9.692223,0.014366,0.421401,0.034315,-0.000158,0.020416,23.165567,48.502906,-38.527282,-0.45,-0.43,-0.9
-9.692223,0.014366,0.421401,0.034315,-0.000158,0.020416,23.165567,48.502906,-38.527282,-0.45,-0.43,-0.91
-9.697011,0.009577,0.445344,0.034315,0.000907,0.017753,23.165567,48.502906,-38.527282,-0.46,-0.43,-0.91
-9.687434,0.014366,0.450133,0.032584,-0.002023,0.025609,23.165567,48.502906,-38.527282,-0.46,-0.44,-0.92
-9.687434,0.014366,0.450133,0.032584,-0.002023,0.025609,23.165567,48.502906,-38.527282,-0.46,-0.44,-0.92
-9.697011,0.028732,0.454922,0.033783,0.001839,0.021215,23.165567,48.502906,-38.527282,-0.47,-0.44,-0.93
-9.677857,-0.009577,0.464499,0.032717,-0.003754,-0.013007,23.165567,48.502906,-38.527282,-0.47,-0.45,-0.94
-9.677857,-0.009577,0.464499,0.032717,-0.003754,-0.013007,23.165567,48.502906,-38.527282,-0.47,-0.45,-0.94
-9.677857,-0.023943,0.474076,0.034182,-0.002422,0.005369,23.165567,48.502906,-38.527282,-0.47,-0.45,-0.95
-9.697011,0.028732,0.445344,0.036046,0.001972,0.037727,21.8987,48.321926,-38.702404,-0.48,-0.45,-0.96
-9.7018,-0.004789,0.440556,0.033383,-0.002023,0.023878,21.8987,48.321926,-38.702404,-0.48,-0.46,-0.96
-9.7018,-0.004789,0.440556,0.033383,-0.002023,0.023878,21.8987,48.321926,-38.702404,-0.48,-0.46,-0.97
-9.692223,0.019155,0.469287,0.034049,0.00064,0.024411,21.8987,48.321926,-38.702404,-0.49,-0.46,-0.97
-9.697011,0.014366,0.45971,0.034315,-0.000691,0.02774,21.8987,48.321926,-38.702404,-0.49,-0.47,-0.98
-9.697011,0.014366,0.45971,0.034315,-0.000691,0.02774,21.8987,48.321926,-38.702404,-0.49,-0.47,-0.98
-9.692223,0.023943,0.469287,0.033916,0.000241,0.020682,21.8987,48.321926,-38.702404,-0.5,-0.47,-0.99
-9.697011,0.004789,0.474076,0.034582,0.001839,0.01722,21.8987,48.321926,-38.702404,-0.5,-0.48,-0.99
-9.697011,0.004789,0.474076,0.034582,0.001839,0.01722,21.8987,48.321926,-38.702404,-0.5,-0.48,-1
-9.697011,0.004789,0.464499,0.034049,0.00104,0.02774,21.8987,48.321926,-38.702404,-0.5,-0.48,-1
-9.711378,0.038309,0.445344,0.03365,-0.000558,0.02015,22.803606,52.122528,-39.928272,-0.51,-0.48,-1.01
-9.711378,0.038309,0.445344,0.03365,-0.000558,0.02015,22.803606,52.122528,-39.928272,-0.51,-0.49,-1.01
-9.706589,-0.009577,0.435767,0.03325,-0.000957,0.007633,22.803606,52.122528,-39.928272,-0.51,-0.49,-1.02
-9.687434,-0.009577,0.469287,0.034315,0.001839,0.011494,22.803606,52.122528,-39.928272,-0.52,-0.49,-1.03
-9.677857,0,0.450133,0.033916,0.000774,0.01216,22.803606,52.122528,-39.928272,-0.52,-0.5,-1.03
-9.677857,0,0.450133,0.033916,0.000774,0.01216,22.803606,52.122528,-39.928272,-0.52,-0.5,-1.04
-9.697011,0.009577,0.488442,0.03365,-0.003754,0.031335,22.803606,52.122528,-39.928272,-0.52,-0.5,-1.04
-9.711378,0.023943,0.445344,0.034315,0.002372,0.031868,22.803606,52.122528,-39.928272,-0.53,-0.5,-1.05
-9.711378,0.023943,0.445344,0.034315,0.002372,0.031868,22.803606,52.122528,-39.928272,-0.53,-0.51,-1.05
-9.697011,0.009577,0.45971,0.032584,-0.002555,0.016554,23.346548,50.855659,-36.951164,-0.53,-0.51,-1.06
-9.673069,0.014366,0.435767,0.03365,-0.000824,0.016821,23.346548,50.855659,-36.951164,-0.54,-0.51,-1.06
-9.673069,0.014366,0.435767,0.03365,-0.000824,0.016821,23.346548,50.855659,-36.951164,-0.54,-0.52,-1.07
-9.706589,-0.004789,0.450133,0.033516,-0.001623,0.025077,23.346548,50.855659,-36.951164,-0.54,-0.52,-1.08
-9.697011,0.004789,0.454922,0.03365,-0.002822,0.024677,23.346548,50.855659,-36.951164,-0.54,-0.52,-1.08
-9.697011,0.004789,0.454922,0.03365,-0.002822,0.024677,23.346548,50.855659,-36.951164,-0.55,-0.52,-1.09
-9.687434,0.023943,0.440556,0.034182,0.002372,0.015622,23.346548,50.855659,-36.951164,-0.55,-0.53,-1.09
-9.716166,0.023943,0.440556,0.033916,0.00064,0.006434,23.346548,50.855659,-36.951164,-0.55,-0.53,-1.1
-9.687434,-0.014366,0.435767,0.03325,-0.00189,-0.013407,21.8987,49.40781,-37.65166,-0.56,-0.53,-1.11
-9.687434,-0.014366,0.435767,0.03325,-0.00189,-0.013407,21.8987,49.40781,-37.65166,-0.56,-0.53,-1.11
-9.673069,-0.023943,0.450133,0.03365,-0.000025,0.012959,21.8987,49.40781,-37.65166,-0.56,-0.54,-1.12
-9.7018,0.043098,0.454922,0.034315,-0.000957,0.045051,21.8987,49.40781,-37.65166,-0.56,-0.54,-1.12
-9.7018,0.043098,0.454922,0.034315,-0.000957,0.045051,21.8987,49.40781,-37.65166,-0.57,-0.54,-1.13
-9.677857,-0.009577,0.440556,0.033516,0.003037,0.004037,21.8987,49.40781,-37.65166,-0.57,-0.55,-1.13
-9.692223,-0.014366,0.469287,0.032984,-0.002156,0.021348,21.8987,49.40781,-37.65166,-0.57,-0.55,-1.14
-9.692223,-0.014366,0.469287,0.032984,-0.002156,0.021348,21.8987,49.40781,-37.65166,-0.58,-0.55,-1.15
-9.711378,0.028732,0.454922,0.034449,0.000241,0.047048,21.8987,49.40781,-37.65166,-0.58,-0.55,-1.15
-9.682645,0.014366,0.435767,0.032984,-0.000558,0.013225,20.631834,49.226829,-38.177032,-0.58,-0.56,-1.16
-9.682645,0.014366,0.435767,0.032984,-0.000558,0.013225,20.631834,49.226829,-38.177032,-0.59,-0.56,-1.16
-9.687434,-0.038309,0.454922,0.033783,-0.00189,0.004171,20.631834,49.226829,-38.177032,-0.59,-0.56,-1.17
-9.692223,-0.009577,0.421401,0.035913,0.005567,0.026941,20.631834,49.226829,-38.177032,-0.59,-0.57,-1.17
-9.706589,0.038309,0.454922,0.034449,-0.006284,0.041056,20.631834,49.226829,-38.177032,-0.59,-0.57,-1.18
-9.706589,0.038309,0.454922,0.034449,-0.006284,0.041056,20.631834,49.226829,-38.177032,-0.6,-0.57,-1.18
-9.682645,0.004789,0.45971,0.033516,-0.001224,0.006701,20.631834,49.226829,-38.177032,-0.6,-0.58,-1.19
-9.673069,-0.019155,0.454922,0.034582,0.000507,0.019883,20.631834,49.226829,-38.177032,-0.6,-0.58,-1.19
-9.673069,-0.019155,0.454922,0.034582,0.000507,0.019883,20.631834,49.226829,-38.177032,-0.61,-0.58,-1.2
-9.735321,0,0.45971,0.035114,-0.002023,0.042121,20.631834,49.226829,-38.177032,-0.61,-0.58,-1.2
-9.697011,0.023943,0.435767,0.034449,0.001439,0.026009,21.71772,50.312717,-37.476535,-0.61,-0.59,-1.21
-9.697011,0.023943,0.435767,0.034449,0.001439,0.026009,21.71772,50.312717,-37.476535,-0.62,-0.59,-1.21
-9.677857,0.004789,0.440556,0.033117,-0.003621,0.009231,21.71772,50.312717,-37.476535,-0.62,-0.59,-1.22
-9.682645,-0.014366,0.450133,0.034848,0.002238,0.018019,21.71772,50.312717,-37.476535,-0.62,-0.6,-1.23
-9.687434,0.014366,0.45971,0.03325,-0.003621,0.028406,21.71772,50.312717,-37.476535,-0.62,-0.6,-1.23
-9.687434,0.014366,0.45971,0.03325,-0.003621,0.028406,21.71772,50.312717,-37.476535,-0.63,-0.6,-1.24
-9.682645,0.014366,0.450133,0.034848,0.001306,0.020416,21.71772,50.312717,-37.476535,-0.63,-0.6,-1.24
-9.7018,0.004789,0.464499,0.034582,-0.000158,0.016821,21.71772,50.312717,-37.476535,-0.63,-0.61,-1.25
-9.7018,0.004789,0.464499,0.034582,-0.000158,0.016821,21.71772,50.312717,-37.476535,-0.64,-0.61,-1.25
-9.7018,0.004789,0.450133,0.03325,-0.001623,0.021881,22.622625,50.855659,-35.900421,-0.64,-0.61,-1.26
-9.687434,0.033521,0.445344,0.033516,-0.000292,0.026675,22.622625,50.855659,-35.900421,-0.64,-0.62,-1.26
-9.687434,0.033521,0.445344,0.033516,-0.000292,0.026675,22.622625,50.855659,-35.900421,-0.64,-0.62,-1.27
-9.706589,0.004789,0.45971,0.034315,-0.00149,0.022946,22.622625,50.855659,-35.900421,-0.65,-0.62,-1.27
-9.692223,0.014366,0.474076,0.033916,0.00064,0.024145,22.622625,50.855659,-35.900421,-0.65,-0.62,-1.28
-9.692223,0.014366,0.474076,0.033916,0.00064,0.024145,22.622625,50.855659,-35.900421,-0.65,-0.63,-1.29
-9.692223,0.014366,0.445344,0.033117,-0.000425,0.019084,22.622625,50.855659,-35.900421,-0.66,-0.63,-1.29
-9.692223,0,0.478865,0.031918,-0.002289,0.013492,22.622625,50.855659,-35.900421,-0.66,-0.63,-1.3
-9.7018,0.009577,0.464499,0.033117,0.001573,0.023346,21.536739,50.855659,-36.600917,-0.66,-0.63,-1.3
-9.7018,0.009577,0.464499,0.033117,0.001573,0.023346,21.536739,50.855659,-36.600917,-0.66,-0.64,-1.31
-9.706589,0.014366,0.450133,0.03325,-0.002955,0.021082,21.536739,50.855659,-36.600917,-0.67,-0.64,-1.31
-9.7018,0.009577,0.474076,0.034981,0.001573,0.017886,21.536739,50.855659,-36.600917,-0.67,-0.64,-1.32
-9.7018,0.009577,0.474076,0.034981,0.001573,0.017886,21.536739,50.855659,-36.600917,-0.67,-0.65,-1.33
-9.7018,0.023943,0.445344,0.034049,-0.000824,0.024944,21.536739,50.855659,-36.600917,-0.68,-0.65,-1.33
-9.697011,0.019155,0.454922,0.034848,-0.00189,0.023612,21.536739,50.855659,-36.600917,-0.68,-0.65,-1.34
-9.697011,0.019155,0.454922,0.034848,-0.00189,0.023612,21.536739,50.855659,-36.600917,-0.68,-0.65,-1.34
-9.668279,0.014366,0.435767,0.032717,-0.000025,0.010429,21.536739,50.855659,-36.600917,-0.68,-0.66,-1.35
-9.687434,0.014366,0.474076,0.032717,-0.000957,0.019084,21.536739,50.855659,-36.600917,-0.69,-0.66,-1.35
-9.687434,0.014366,0.474076,0.032717,-0.000957,0.019084,21.536739,50.855659,-36.600917,-0.69,-0.66,-1.36
-9.697011,0.028732,0.430978,0.034315,0.001173,0.031468,23.346548,51.941547,-36.600917,-0.69,-0.66,-1.37
-9.697011,0.023943,0.469287,0.032185,-0.002289,0.019218,23.346548,51.941547,-36.600917,-0.7,-0.67,-1.37
-9.697011,0.023943,0.469287,0.032185,-0.002289,0.019218,23.346548,51.941547,-36.600917,-0.7,-0.67,-1.38
-9.7018,0.004789,0.469287,0.032717,0.000907,0.013625,23.346548,51.941547,-36.600917,-0.7,-0.67,-1.38
-9.692223,0.028732,0.45971,0.033916,-0.000824,0.028805,23.346548,51.941547,-36.600917,-0.7,-0.68,-1.39
-9.687434,0.038309,0.464499,0.033916,-0.000025,0.019484,23.346548,51.941547,-36.600917,-0.71,-0.68,-1.39
-9.687434,0.038309,0.464499,0.033916,-0.000025,0.019484,23.346548,51.941547,-36.600917,-0.71,-0.68,-1.4
-9.706589,0.004789,0.474076,0.033383,-0.000158,0.013359,23.346548,51.941547,-36.600917,-0.71,-0.68,-1.41
-9.687434,0.014366,0.445344,0.033383,-0.000292,0.021748,21.174776,49.045848,-38.702404,-0.72,-0.69,-1.41
-9.687434,0.014366,0.445344,0.033383,-0.000292,0.021748,21.174776,49.045848,-38.702404,-0.72,-0.69,-1.42
-9.682645,0.014366,0.440556,0.034182,-0.000957,0.023745,21.174776,49.045848,-38.702404,-0.72,-0.69,-1.42
-9.720954,0.014366,0.45971,0.033783,-0.00149,0.016954,21.174776,49.045848,-38.702404,-0.73,-0.7,-1.43
-9.720954,0.014366,0.45971,0.033783,-0.00149,0.016954,21.174776,49.045848,-38.702404,-0.73,-0.7,-1.43
-9.7018,0.014366,0.440556,0.034049,0.000907,0.020949,21.174776,49.045848,-38.702404,-0.73,-0.7,-1.44
-9.682645,0.033521,0.45971,0.032584,0.000507,0.028539,21.174776,49.045848,-38.702404,-0.73,-0.7,-1.44
-9.682645,0.033521,0.45971,0.032584,0.000507,0.028539,21.174776,49.045848,-38.702404,-0.74,-0.71,-1.45
-9.706589,0.023943,0.464499,0.032318,-0.000025,0.018419,21.174776,49.045848,-38.702404,-0.74,-0.71,-1.45
-9.682645,0.019155,0.454922,0.032984,-0.000691,0.02015,22.803606,48.864868,-37.826786,-0.74,-0.71,-1.46
-9.7018,0.014366,0.430978,0.032185,-0.001224,0.017753,22.803606,48.864868,-37.826786,-0.75,-0.72,-1.47
-9.7018,0.014366,0.430978,0.032185,-0.001224,0.017753,22.803606,48.864868,-37.826786,-0.75,-0.72,-1.47
-9.682645,0.028732,0.469287,0.033117,-0.000025,0.02228,22.803606,48.864868,-37.826786,-0.75,-0.72,-1.48
-9.706589,0.033521,0.469287,0.034182,-0.002555,0.022413,22.803606,48.864868,-37.826786,-0.76,-0.73,-1.48
-9.706589,0.033521,0.469287,0.034182,-0.002555,0.022413,22.803606,48.864868,-37.826786,-0.76,-0.73,-1.49
-9.7018,0.009577,0.454922,0.03365,0.000374,0.016554,22.803606,48.864868,-37.826786,-0.76,-0.73,-1.49
-9.687434,0.019155,0.469287,0.033916,-0.000824,0.02268,22.803606,48.864868,-37.826786,-0.76,-0.73,-1.5
-9.687434,0.019155,0.469287,0.033916,-0.000824,0.02268,22.803606,48.864868,-37.826786,-0.77,-0.74,-1.5
-9.711378,0.033521,0.440556,0.034182,-0.000691,0.022147,21.8987,50.131736,-34.849678,-0.77,-0.74,-1.51
-9.697011,0.004789,0.430978,0.034049,-0.000425,0.016821,21.8987,50.131736,-34.849678,-0.77,-0.74,-1.52
-9.697011,0.004789,0.430978,0.034049,-0.000425,0.016821,21.8987,50.131736,-34.849678,-0.78,-0.75,-1.52
-9.711378,0.014366,0.445344,0.034049,-0.000824,0.019617,21.8987,50.131736,-34.849678,-0.78,-0.75,-1.53
-9.7018,0.023943,0.454922,0.034049,0.000108,0.024411,21.8987,50.131736,-34.849678,-0.78,-0.75,-1.53
-9.711378,0.014366,0.478865,0.03325,-0.00189,0.016288,21.8987,50.131736,-34.849678,-0.78,-0.75,-1.54
-9.711378,0.014366,0.478865,0.03325,-0.00189,0.016288,21.8987,50.131736,-34.849678,-0.79,-0.76,-1.54
-9.692223,0.014366,0.474076,0.033117,-0.000425,0.015223,21.8987,50.131736,-34.849678,-0.79,-0.76,-1.55
-9.706589,0.033521,0.464499,0.032851,0.000374,0.022946,21.8987,50.131736,-34.849678,-0.79,-0.76,-1.56
-9.706589,0.033521,0.464499,0.032851,0.000374,0.022946,21.8987,50.131736,-34.849678,-0.79,-0.76,-1.56
-9.7018,0.014366,0.42619,0.034049,-0.000025,0.019484,22.079681,49.950756,-35.024799,-0.8,-0.77,-1.57
-9.677857,0.023943,0.45971,0.034449,-0.000691,0.01722,22.079681,49.950756,-35.024799,-0.8,-0.77,-1.57
-9.677857,0.023943,0.45971,0.034449,-0.000691,0.01722,22.079681,49.950756,-35.024799,-0.8,-0.77,-1.58
-9.692223,0.014366,0.454922,0.03325,-0.000158,0.020816,22.079681,49.950756,-35.024799,-0.81,-0.78,-1.59
-9.692223,0.028732,0.45971,0.033516,-0.000025,0.02521,22.079681,49.950756,-35.024799,-0.81,-0.78,-1.59
-9.692223,0.028732,0.45971,0.033516,-0.000025,0.02521,22.079681,49.950756,-35.024799,-0.81,-0.78,-1.6
-9.692223,0.023943,0.478865,0.034182,0.000374,0.020283,22.079681,49.950756,-35.024799,-0.81,-0.78,-1.6
-9.697011,0.019155,0.440556,0.034049,-0.000292,0.014957,22.079681,49.950756,-35.024799,-0.82,-0.79,-1.61
-9.697011,0.019155,0.440556,0.034049,-0.000292,0.014957,22.079681,49.950756,-35.024799,-0.82,-0.79,-1.61
-9.697011,0.019155,0.440556,0.034182,-0.000691,0.018019,22.441642,50.674678,-35.024799,-0.82,-0.79,-1.62
-9.692223,0.028732,0.469287,0.033117,-0.00149,0.024411,22.441642,50.674678,-35.024799,-0.83,-0.79,-1.63
-9.7018,0.028732,0.478865,0.033916,-0.000425,0.022946,22.441642,50.674678,-35.024799,-0.83,-0.8,-1.63
-9.7018,0.028732,0.478865,0.033916,-0.000425,0.022946,22.441642,50.674678,-35.024799,-0.83,-0.8,-1.64
-9.706589,0.009577,0.454922,0.032584,-0.001091,0.017087,22.441642,50.674678,-35.024799,-0.83,-0.8,-1.64
-9.692223,0.033521,0.469287,0.03365,0.000374,0.021348,22.441642,50.674678,-35.024799,-0.84,-0.81,-1.65
-9.692223,0.033521,0.469287,0.03365,0.000374,0.021348,22.441642,50.674678,-35.024799,-0.84,-0.81,-1.65
-9.682645,0.028732,0.469287,0.034049,-0.000957,0.019617,22.441642,50.674678,-35.024799,-0.84,-0.81,-1.66
-9.692223,0.014366,0.450133,0.03325,-0.000292,0.021348,21.71772,49.58879,-36.776039,-0.85,-0.81,-1.67
-9.692223,0.014366,0.450133,0.03325,-0.000292,0.021348,21.71772,49.58879,-36.776039,-0.85,-0.82,-1.67
-9.17026,-0.948152,-3.931479,0.111948,0.236467,0.158636,21.71772,49.58879,-36.776039,-0.84,-0.81,-1.67
-10.228551,1.441383,-3.275435,-0.298452,-0.049827,0.397126,21.71772,49.58879,-36.776039,-0.84,-0.84,-1.65
-10.228551,1.441383,-3.275435,-0.298452,-0.049827,0.397126,21.71772,49.58879,-36.776039,-0.85,-0.86,-1.64
-9.59645,2.533195,-1.264203,-0.111894,-0.177261,0.054372,21.71772,49.58879,-36.776039,-0.86,-0.87,-1.64
-9.946022,3.371208,0.665622,0.47108,-0.138112,-0.147765,21.71772,49.58879,-36.776039,-0.87,-0.85,-1.66
-9.663491,2.384746,2.423056,1.212915,-0.347839,-0.661763,21.71772,49.58879,-36.776039,-0.9,-0.78,-1.7
-9.663491,2.384746,2.423056,1.212915,-0.347839,-0.661763,21.71772,49.58879,-36.776039,-0.92,-0.72,-1.75
-9.649125,0.244221,6.344958,2.193639,-0.301367,-0.936739,21.71772,49.58879,-36.776039,-0.94,-0.6,-1.81
-8.308303,-4.539638,4.185278,2.357293,0.876301,-0.875485,21.71772,50.674678,-37.126289,-0.89,-0.47,-1.86
-8.308303,-4.539638,4.185278,2.357293,0.876301,-0.875485,21.71772,50.674678,-37.126289,-0.85,-0.34,-1.92
-9.725744,-5.248358,0.895477,1.17097,0.092654,0.404716,21.71772,50.674678,-37.126289,-0.84,-0.27,-1.9
-9.160683,-2.23151,-0.411824,-0.027338,-0.072464,0.472228,21.71772,50.674678,-37.126289,-0.85,-0.28,-1.88
-9.160683,-2.23151,-0.411824,-0.027338,-0.072464,0.472228,21.71772,50.674678,-37.126289,-0.86,-0.29,-1.86
-10.745725,0.99125,-0.004789,-0.53268,0.304379,1.302082,21.71772,50.674678,-37.126289,-0.84,-0.32,-1.8
-9.639548,0.430978,0.828436,-0.610978,-0.255426,-0.277064,21.71772,50.674678,-37.126289,-0.86,-0.36,-1.82
-9.639548,0.430978,0.828436,-0.610978,-0.255426,-0.277064,21.71772,50.674678,-37.126289,-0.88,-0.4,-1.84
-9.414482,-0.181969,0.526751,-0.511774,0.010627,-0.16734,21.71772,50.674678,-37.126289,-0.88,-0.44,-1.86
-9.917289,0.114928,0.478865,-0.51457,0.055502,0.326817,21.71772,49.226829,-37.126289,-0.88,-0.47,-1.85
-9.677857,0.186757,0.464499,-0.539871,-0.076859,0.020682,21.71772,49.226829,-37.126289,-0.89,-0.51,-1.85
-9.677857,0.186757,0.464499,-0.539871,-0.076859,0.020682,21.71772,49.226829,-37.126289,-0.89,-0.54,-1.86
-9.80715,0.24901,0.325628,-0.500722,0.04485,0.120686,21.71772,49.226829,-37.126289,-0.89,-0.57,-1.86
-9.749687,0.320839,0.229855,-0.444395,-0.026657,0.04585,21.71772,49.226829,-37.126289,-0.9,-0.6,-1.86
-9.749687,0.320839,0.229855,-0.444395,-0.026657,0.04585,21.71772,49.226829,-37.126289,-0.9,-0.64,-1.86
-9.658702,0.301685,0.004789,-0.369959,-0.011078,0.02521,21.71772,49.226829,-37.126289,-0.91,-0.66,-1.87
-9.759263,0.38788,0.158025,-0.282739,0.01662,0.080604,21.71772,49.226829,-37.126289,-0.91,-0.68,-1.87
-9.759263,0.38788,0.158025,-0.282739,0.01662,0.080604,21.71772,49.226829,-37.126289,-0.91,-0.7,-1.87
-9.697011,0.320839,0.153237,-0.206172,-0.026391,0.018419,21.536739,48.683887,-36.600917,-0.92,-0.72,-1.88
-9.653914,0.229855,0.081407,-0.116289,0.009829,0.018818,21.536739,48.683887,-36.600917,-0.92,-0.73,-1.89
-9.653914,0.229855,0.081407,-0.116289,0.009829,0.018818,21.536739,48.683887,-36.600917,-0.92,-0.74,-1.89
-9.687434,0.258587,0.191546,-0.058098,-0.014806,0.023212,21.536739,48.683887,-36.600917,-0.92,-0.75,-1.9
-9.7018,0.234644,0.253798,-0.024009,-0.000558,0.010296,21.536739,48.683887,-36.600917,-0.93,-0.76,-1.9
-9.687434,0.07183,0.38788,0.015806,0.003037,0.009231,21.536739,48.683887,-36.600917,-0.93,-0.76,-1.91
-9.687434,0.07183,0.38788,0.015806,0.003037,0.009231,21.536739,48.683887,-36.600917,-0.93,-0.77,-1.92
-9.687434,0.038309,0.469287,0.030187,-0.010944,0.014957,21.536739,48.683887,-36.600917,-0.94,-0.77,-1.92
-9.697011,0.057464,0.430978,0.035913,0.009429,0.022946,22.622625,48.683887,-35.550174,-0.94,-0.77,-1.93
-9.697011,0.057464,0.430978,0.035913,0.009429,0.022946,22.622625,48.683887,-35.550174,-0.94,-0.77,-1.93
-9.697011,0.028732,0.445344,0.032451,-0.005884,0.01722,22.622625,48.683887,-35.550174,-0.94,-0.78,-1.94
-9.687434,0.057464,0.450133,0.033783,0.002638,0.021348,22.622625,48.683887,-35.550174,-0.95,-0.78,-1.94
-9.687434,0.057464,0.450133,0.033783,0.002638,0.021348,22.622625,48.683887,-35.550174,-0.95,-0.78,-1.95
-9.697011,0.043098,0.450133,0.033783,0.000241,0.019218,22.622625,48.683887,-35.550174,-0.95,-0.79,-1.96
-9.677857,0.047886,0.450133,0.033516,-0.003088,0.018286,22.622625,48.683887,-35.550174,-0.95,-0.79,-1.96
-9.677857,0.047886,0.450133,0.033516,-0.003088,0.018286,22.622625,48.683887,-35.550174,-0.96,-0.79,-1.97
-9.687434,0.057464,0.45971,0.034049,0.003437,0.021348,22.622625,48.683887,-35.550174,-0.96,-0.79,-1.97
-9.682645,0.043098,0.474076,0.033783,-0.002422,0.018019,22.622625,48.683887,-35.550174,-0.96,-0.8,-1.98
-9.697011,0.062252,0.435767,0.033783,0.001839,0.02228,22.260662,48.683887,-34.499427,-0.97,-0.8,-1.98
-9.697011,0.062252,0.435767,0.033783,0.001839,0.02228,22.260662,48.683887,-34.499427,-0.97,-0.8,-1.99
-9.677857,0.047886,0.430978,0.032052,-0.000158,0.018152,22.260662,48.683887,-34.499427,-0.97,-0.81,-2
-9.644336,0.095773,0.445344,0.033783,-0.000158,0.020682,22.260662,48.683887,-34.499427,-0.97,-0.81,-2
-9.644336,0.095773,0.445344,0.033783,-0.000158,0.020682,22.260662,48.683887,-34.499427,-0.98,-0.81,-2.01
-9.653914,0.047886,0.435767,0.03325,0.000774,0.01762,22.260662,48.683887,-34.499427,-0.98,-0.81,-2.01
-9.7018,0.067041,0.469287,0.033516,-0.000824,0.022547,22.260662,48.683887,-34.499427,-0.98,-0.82,-2.02
-9.7018,0.067041,0.469287,0.033516,-0.000824,0.022547,22.260662,48.683887,-34.499427,-0.98,-0.82,-2.02
-9.716166,0.062252,0.450133,0.033383,-0.000292,0.018818,22.260662,48.683887,-34.499427,-0.99,-0.82,-2.03
-9.697011,0.047886,0.411824,0.033783,0.000774,0.018152,23.165567,48.140945,-33.974056,-0.99,-0.82,-2.04
-9.697011,0.047886,0.411824,0.033783,0.000774,0.018152,23.165567,48.140945,-33.974056,-0.99,-0.83,-2.04
-9.725744,0.057464,0.435767,0.034049,-0.000691,0.022946,23.165567,48.140945,-33.974056,-1,-0.83,-2.05
-9.682645,0.043098,0.435767,0.03365,-0.003088,0.016022,23.165567,48.140945,-33.974056,-1,-0.83,-2.05
-9.7018,0.047886,0.440556,0.034049,0.00104,0.020017,23.165567,48.140945,-33.974056,-1,-0.84,-2.06
-9.7018,0.047886,0.440556,0.034049,0.00104,0.020017,23.165567,48.140945,-33.974056,-1,-0.84,-2.07
-9.697011,0.057464,0.450133,0.034049,-0.001756,0.020549,23.165567,48.140945,-33.974056,-1.01,-0.84,-2.07
-9.711378,0.057464,0.450133,0.033516,-0.001091,0.019218,23.165567,48.140945,-33.974056,-1.01,-0.84,-2.08
-9.711378,0.057464,0.450133,0.033516,-0.001091,0.019218,23.165567,48.140945,-33.974056,-1.01,-0.85,-2.08
-9.7018,0.033521,0.430978,0.032984,0.000108,0.018019,22.260662,49.769775,-32.397941,-1.01,-0.85,-2.09
-9.706589,0.067041,0.435767,0.033383,-0.003487,0.020017,22.260662,49.769775,-32.397941,-1.02,-0.85,-2.1
-9.706589,0.067041,0.435767,0.033383,-0.003487,0.020017,22.260662,49.769775,-32.397941,-1.02,-0.85,-2.1
-9.697011,0.081407,0.430978,0.034049,0.001839,0.021481,22.260662,49.769775,-32.397941,-1.02,-0.86,-2.11
-9.749687,0.124505,0.938575,-0.022943,0.083999,0.054638,22.260662,49.769775,-32.397941,-1.02,-0.86,-2.11
-9.749687,0.124505,0.938575,-0.022943,0.083999,0.054638,22.260662,49.769775,-32.397941,-1.02,-0.87,-2.12
-10.02264,0,0.378303,-0.014821,0.132735,0.146252,22.260662,49.769775,-32.397941,-1.01,-0.87,-2.11
-9.548563,0.143659,0.517174,-0.075675,-0.42454,-0.317944,22.260662,49.769775,-32.397941,-1.04,-0.88,-2.14
-9.658702,-0.129293,0.119716,-0.021212,0.283606,0.196054,24.613414,48.864868,-34.324306,-1.03,-0.89,-2.14
-9.658702,-0.129293,0.119716,-0.021212,0.283606,0.196054,24.613414,48.864868,-34.324306,-1.01,-0.89,-2.13
-9.783207,0.373515,0.363937,-0.034395,-0.098297,0.11203,24.613414,48.864868,-34.324306,-1.02,-0.9,-2.13
-9.591661,-0.090984,0.402246,-0.014954,-0.037843,-0.122997,24.613414,48.864868,-34.324306,-1.03,-0.91,-2.15
-9.591661,-0.090984,0.402246,-0.014954,-0.037843,-0.122997,24.613414,48.864868,-34.324306,-1.03,-0.91,-2.16
-9.802362,0.172391,0.392669,0.019135,0.092654,0.174216,24.613414,48.864868,-34.324306,-1.03,-0.91,-2.16
-9.677857,0.172391,0.292108,-0.004701,-0.10136,-0.057216,24.613414,48.864868,-34.324306,-1.04,-0.92,-2.17
-9.677857,0.172391,0.292108,-0.004701,-0.10136,-0.057216,24.613414,48.864868,-34.324306,-1.04,-0.92,-2.18
-9.55814,-0.10535,0.263376,0.030853,0.07055,0.003372,24.613414,48.864868,-34.324306,-1.04,-0.93,-2.18
-9.792784,0.263376,0.483653,0.030853,-0.042503,0.098847,24.613414,48.864868,-34.324306,-1.05,-0.93,-2.19
-9.792784,0.263376,0.483653,0.030853,-0.042503,0.098847,24.613414,48.864868,-34.324306,-1.05,-0.93,-2.19
-9.606027,-0.086196,0.411824,0.032584,0.005035,-0.058814,21.71772,49.226829,-35.024799,-1.06,-0.94,-2.2
-9.759263,0.186757,0.42619,0.034848,0.008497,0.083401,21.71772,49.226829,-35.024799,-1.06,-0.94,-2.2
-9.668279,0.023943,0.488442,0.029522,-0.010811,-0.007414,21.71772,49.226829,-35.024799,-1.06,-0.94,-2.21
-9.668279,0.023943,0.488442,0.029522,-0.010811,-0.007414,21.71772,49.226829,-35.024799,-1.07,-0.95,-2.21
-9.711378,0.062252,0.435767,0.034715,0.009296,0.030403,21.71772,49.226829,-35.024799,-1.07,-0.95,-2.22
-9.687434,0.047886,0.488442,0.031785,-0.007482,0.020682,21.71772,49.226829,-35.024799,-1.07,-0.95,-2.23
-9.687434,0.047886,0.488442,0.031785,-0.007482,0.020682,21.71772,49.226829,-35.024799,-1.07,-0.95,-2.23
-9.692223,0.067041,0.454922,0.033916,0.003037,0.020416,21.71772,49.226829,-35.024799,-1.08,-0.96,-2.24
-9.687434,0.062252,0.440556,0.032185,-0.001224,0.021082,23.165567,48.864868,-33.974056,-1.08,-0.96,-2.24
-9.687434,0.062252,0.440556,0.032185,-0.001224,0.021082,23.165567,48.864868,-33.974056,-1.08,-0.96,-2.25
-9.687434,0.07183,0.435767,0.032451,-0.000957,0.020549,23.165567,48.864868,-33.974056,-1.08,-0.97,-2.25
-9.682645,0.052675,0.469287,0.032717,0.001439,0.017886,23.165567,48.864868,-33.974056,-1.09,-0.97,-2.26
-9.682645,0.052675,0.469287,0.032717,0.001439,0.017886,23.165567,48.864868,-33.974056,-1.09,-0.97,-2.27
-9.706589,0.052675,0.474076,0.032451,-0.002555,0.018818,23.165567,48.864868,-33.974056,-1.09,-0.97,-2.27
-9.711378,0.081407,0.454922,0.034582,0.002505,0.022147,23.165567,48.864868,-33.974056,-1.1,-0.98,-2.28
-9.697011,0.07183,0.450133,0.03365,-0.002289,0.017353,23.165567,48.864868,-33.974056,-1.1,-0.98,-2.28
-9.697011,0.07183,0.450133,0.03365,-0.002289,0.017353,23.165567,48.864868,-33.974056,-1.1,-0.98,-2.29
-9.692223,0.067041,0.435767,0.034449,0.000374,0.01975,22.622625,48.321926,-36.951164,-1.1,-0.98,-2.3
-9.692223,0.062252,0.440556,0.034981,0.001439,0.021881,22.622625,48.321926,-36.951164,-1.11,-0.99,-2.3
-9.692223,0.062252,0.440556,0.034981,0.001439,0.021881,22.622625,48.321926,-36.951164,-1.11,-0.99,-2.31
-9.706589,0.062252,0.445344,0.032984,-0.00189,0.019617,22.622625,48.321926,-36.951164,-1.11,-0.99,-2.31
-9.692223,0.047886,0.450133,0.034182,0.000241,0.020416,22.622625,48.321926,-36.951164,-1.12,-1,-2.32
-9.692223,0.047886,0.450133,0.034182,0.000241,0.020416,22.622625,48.321926,-36.951164,-1.12,-1,-2.32
-9.7018,0.067041,0.454922,0.033516,-0.000824,0.020283,22.622625,48.321926,-36.951164,-1.12,-1,-2.33
-9.682645,0.047886,0.478865,0.033783,-0.000425,0.019351,22.622625,48.321926,-36.951164,-1.12,-1,-2.33
-9.682645,0.047886,0.478865,0.033783,-0.000425,0.019351,22.622625,48.321926,-36.951164,-1.13,-1.01,-2.34
-9.706589,0.067041,0.445344,0.033383,0.000108,0.021615,22.622625,48.321926,-36.951164,-1.13,-1.01,-2.35
-9.706589,0.067041,0.45971,0.03325,-0.000025,0.01975,22.441642,47.417018,-35.024799,-1.13,-1.01,-2.35
-9.687434,0.057464,0.464499,0.033383,0.000108,0.018818,22.441642,47.417018,-35.024799,-1.14,-1.02,-2.36
-9.687434,0.057464,0.464499,0.033383,0.000108,0.018818,22.441642,47.417018,-35.024799,-1.14,-1.02,-2.36
-9.692223,0.062252,0.454922,0.033383,-0.000425,0.02015,22.441642,47.417018,-35.024799,-1.14,-1.02,-2.37
-9.692223,0.07183,0.450133,0.032851,0.000374,0.020416,22.441642,47.417018,-35.024799,-1.14,-1.03,-2.37
-9.692223,0.07183,0.450133,0.032851,0.000374,0.020416,22.441642,47.417018,-35.024799,-1.15,-1.03,-2.38
-9.697011,0.062252,0.469287,0.032984,-0.000425,0.018152,22.441642,47.417018,-35.024799,-1.15,-1.03,-2.39
-9.692223,0.076618,0.450133,0.034182,0.000507,0.019351,22.441642,47.417018,-35.024799,-1.15,-1.03,-2.39
-9.692223,0.076618,0.450133,0.034182,0.000507,0.019351,22.441642,47.417018,-35.024799,-1.16,-1.04,-2.4
-9.7018,0.081407,0.450133,0.03365,-0.001091,0.019484,22.803606,48.140945,-36.425792,-1.16,-1.04,-2.4
-9.677857,0.047886,0.454922,0.033783,-0.001623,0.017886,22.803606,48.140945,-36.425792,-1.16,-1.04,-2.41
-9.677857,0.047886,0.454922,0.033783,-0.001623,0.017886,22.803606,48.140945,-36.425792,-1.16,-1.05,-2.41
-9.706589,0.067041,0.445344,0.034049,-0.000691,0.02015,22.803606,48.140945,-36.425792,-1.17,-1.05,-2.42
-9.677857,0.062252,0.454922,0.03365,-0.000558,0.021082,22.803606,48.140945,-36.425792,-1.17,-1.05,-2.43
-9.677857,0.062252,0.454922,0.03365,-0.000558,0.021082,22.803606,48.140945,-36.425792,-1.17,-1.06,-2.43
-9.697011,0.052675,0.464499,0.03365,0.000108,0.018685,22.803606,48.140945,-36.425792,-1.18,-1.06,-2.44
-9.682645,0.062252,0.450133,0.033783,-0.000558,0.019484,22.803606,48.140945,-36.425792,-1.18,-1.06,-2.44
-9.692223,0.052675,0.440556,0.034049,-0.000158,0.019617,22.079681,48.140945,-34.674552,-1.18,-1.06,-2.45
-9.692223,0.052675,0.440556,0.034049,-0.000158,0.019617,22.079681,48.140945,-34.674552,-1.18,-1.07,-2.45
-9.697011,0.052675,0.445344,0.034315,-0.000292,0.01975,22.079681,48.140945,-34.674552,-1.19,-1.07,-2.46
-9.706589,0.07183,0.469287,0.035114,0.00104,0.021615,22.079681,48.140945,-34.674552,-1.19,-1.07,-2.47
-9.706589,0.07183,0.469287,0.035114,0.00104,0.021615,22.079681,48.140945,-34.674552,-1.19,-1.08,-2.47
-9.687434,0.067041,0.45971,0.03365,-0.000292,0.017753,22.079681,48.140945,-34.674552,-1.19,-1.08,-2.48
-9.697011,0.067041,0.450133,0.033117,0.00064,0.018419,22.079681,48.140945,-34.674552,-1.2,-1.08,-2.48
-9.697011,0.067041,0.450133,0.033117,0.00064,0.018419,22.079681,48.140945,-34.674552,-1.2,-1.08,-2.49
-9.692223,0.067041,0.454922,0.033117,0.000774,0.020416,22.079681,48.140945,-34.674552,-1.2,-1.09,-2.5
-9.706589,0.052675,0.450133,0.03325,-0.000558,0.01975,21.71772,48.140945,-35.375049,-1.21,-1.09,-2.5
-9.706589,0.052675,0.450133,0.03325,-0.000558,0.01975,21.71772,48.140945,-35.375049,-1.21,-1.09,-2.51
-9.682645,0.07183,0.42619,0.033516,0.000507,0.019084,21.71772,48.140945,-35.375049,-1.21,-1.1,-2.51
-9.697011,0.076618,0.478865,0.03325,0.000241,0.019484,21.71772,48.140945,-35.375049,-1.21,-1.1,-2.52
-9.677857,0.076618,0.435767,0.03325,0.000108,0.018685,21.71772,48.140945,-35.375049,-1.22,-1.1,-2.52
-9.677857,0.076618,0.435767,0.03325,0.000108,0.018685,21.71772,48.140945,-35.375049,-1.22,-1.1,-2.53
-9.682645,0.067041,0.440556,0.032717,-0.000425,0.019351,21.71772,48.140945,-35.375049,-1.22,-1.11,-2.54
-9.687434,0.076618,0.445344,0.034049,0.001706,0.021215,21.71772,48.140945,-35.375049,-1.23,-1.11,-2.54
-9.687434,0.076618,0.445344,0.034049,0.001706,0.021215,21.71772,48.140945,-35.375049,-1.23,-1.11,-2.55
-9.692223,0.057464,0.45971,0.032984,-0.001623,0.01975,21.71772,48.140945,-35.375049,-1.23,-1.12,-2.55
-9.687434,0.067041,0.445344,0.032984,-0.000025,0.020283,21.174776,47.236038,-34.849678,-1.23,-1.12,-2.56
-9.687434,0.067041,0.445344,0.032984,-0.000025,0.020283,21.174776,47.236038,-34.849678,-1.24,-1.12,-2.56
-9.692223,0.067041,0.45971,0.032984,0.000374,0.018951,21.174776,47.236038,-34.849678,-1.24,-1.13,-2.57
-9.692223,0.052675,0.45971,0.03325,-0.001357,0.018152,21.174776,47.236038,-34.849678,-1.24,-1.13,-2.57
-9.692223,0.052675,0.45971,0.03325,-0.001357,0.018152,21.174776,47.236038,-34.849678,-1.25,-1.13,-2.58
-9.687434,0.086196,0.464499,0.034848,0.00104,0.019218,21.174776,47.236038,-34.849678,-1.25,-1.13,-2.59
-9.687434,0.076618,0.454922,0.033916,-0.000691,0.019084,21.174776,47.236038,-34.849678,-1.25,-1.14,-2.59
-9.7018,0.057464,0.454922,0.033383,0.000507,0.018019,21.174776,47.236038,-34.849678,-1.25,-1.14,-2.6
-9.7018,0.057464,0.454922,0.033383,0.000507,0.018019,21.174776,47.236038,-34.849678,-1.26,-1.14,-2.6
-9.692223,0.067041,0.430978,0.032851,-0.000425,0.020816,24.432434,48.321926,-36.951164,-1.26,-1.15,-2.61
-9.682645,0.057464,0.430978,0.032851,0.000241,0.018552,24.432434,48.321926,-36.951164,-1.26,-1.15,-2.62
-9.682645,0.057464,0.430978,0.032851,0.000241,0.018552,24.432434,48.321926,-36.951164,-1.27,-1.15,-2.62
-9.677857,0.07183,0.440556,0.033117,-0.001357,0.016954,24.432434,48.321926,-36.951164,-1.27,-1.16,-2.63
-9.706589,0.076618,0.440556,0.033783,-0.000292,0.021481,24.432434,48.321926,-36.951164,-1.27,-1.16,-2.63
-9.706589,0.076618,0.440556,0.033783,-0.000292,0.021481,24.432434,48.321926,-36.951164,-1.27,-1.16,-2.64
-9.706589,0.067041,0.454922,0.033383,0.001573,0.020682,24.432434,48.321926,-36.951164,-1.28,-1.16,-2.64
-9.7018,0.052675,0.445344,0.033516,-0.001357,0.018951,24.432434,48.321926,-36.951164,-1.28,-1.17,-2.65
-9.7018,0.052675,0.445344,0.033516,-0.001357,0.018951,24.432434,48.321926,-36.951164,-1.28,-1.17,-2.65
-9.7018,0.062252,0.440556,0.03325,0.000507,0.02015,23.165567,49.58879,-38.177032,-1.29,-1.17,-2.66
-9.692223,0.067041,0.45971,0.03365,-0.001756,0.019351,23.165567,49.58879,-38.177032,-1.29,-1.18,-2.67
-9.692223,0.076618,0.454922,0.03365,0.000108,0.017886,23.165567,49.58879,-38.177032,-1.29,-1.18,-2.67
-9.692223,0.076618,0.454922,0.03365,0.000108,0.017886,23.165567,49.58879,-38.177032,-1.29,-1.18,-2.68
-9.692223,0.057464,0.469287,0.032984,-0.001224,0.018818,23.165567,49.58879,-38.177032,-1.3,-1.19,-2.68
-9.692223,0.076618,0.474076,0.033516,0.000108,0.020017,23.165567,49.58879,-38.177032,-1.3,-1.19,-2.69
-9.692223,0.076618,0.474076,0.033516,0.000108,0.020017,23.165567,49.58879,-38.177032,-1.3,-1.19,-2.69
-9.687434,0.062252,0.464499,0.03365,-0.000292,0.018419,23.165567,49.58879,-38.177032,-1.31,-1.19,-2.7
-9.7018,0.062252,0.445344,0.034315,0.001173,0.020416,23.165567,49.58879,-38.177032,-1.31,-1.2,-2.71
-9.7018,0.062252,0.445344,0.034315,0.001173,0.020416,23.165567,49.58879,-38.177032,-1.31,-1.2,-2.71
-9.692223,0.062252,0.430978,0.033383,0.001706,0.018685,22.984586,49.769775,-38.001907,-1.31,-1.2,-2.72
-9.711378,0.062252,0.454922,0.032984,-0.000824,0.019484,22.984586,49.769775,-38.001907,-1.32,-1.21,-2.72
-9.711378,0.062252,0.454922,0.032984,-0.000824,0.019484,22.984586,49.769775,-38.001907,-1.32,-1.21,-2.73
-9.692223,0.067041,0.445344,0.034049,0.002904,0.020682,22.984586,49.769775,-38.001907,-1.32,-1.21,-2.73
-9.692223,0.047886,0.454922,0.03365,-0.001756,0.018152,22.984586,49.769775,-38.001907,-1.33,-1.22,-2.74
-9.692223,0.047886,0.454922,0.03365,-0.001756,0.018152,22.984586,49.769775,-38.001907,-1.33,-1.22,-2.75
-9.7018,0.07183,0.450133,0.034182,0.000907,0.020549,22.984586,49.769775,-38.001907,-1.33,-1.22,-2.75
-9.697011,0.062252,0.469287,0.033516,-0.000292,0.017886,22.984586,49.769775,-38.001907,-1.33,-1.23,-2.76
-9.692223,0.043098,0.440556,0.034049,-0.000824,0.019617,23.708509,50.131736,-36.250667,-1.34,-1.23,-2.76
-9.692223,0.043098,0.440556,0.034049,-0.000824,0.019617,23.708509,50.131736,-36.250667,-1.34,-1.23,-2.77
-9.697011,0.062252,0.440556,0.033916,0.00104,0.019617,23.708509,50.131736,-36.250667,-1.34,-1.23,-2.77
-9.711378,0.07183,0.469287,0.03325,-0.00149,0.018818,23.708509,50.131736,-36.250667,-1.35,-1.24,-2.78
-9.711378,0.07183,0.469287,0.03325,-0.00149,0.018818,23.708509,50.131736,-36.250667,-1.35,-1.24,-2.79
-9.692223,0.057464,0.45971,0.033117,0.001306,0.019218,23.708509,50.131736,-36.250667,-1.35,-1.24,-2.79
-9.687434,0.047886,0.469287,0.033117,-0.00149,0.018552,23.708509,50.131736,-36.250667,-1.35,-1.25,-2.8
-9.687434,0.047886,0.469287,0.033117,-0.00149,0.018552,23.708509,50.131736,-36.250667,-1.36,-1.25,-2.8
-9.7018,0.062252,0.454922,0.032984,0.001573,0.020949,23.708509,50.131736,-36.250667,-1.36,-1.25,-2.81
-9.692223,0.052675,0.42619,0.03325,-0.001224,0.018552,22.622625,49.40781,-37.301414,-1.36,-1.25,-2.81
-9.692223,0.052675,0.42619,0.03325,-0.001224,0.018552,22.622625,49.40781,-37.301414,-1.37,-1.26,-2.82
-9.697011,0.07183,0.450133,0.034848,-0.000824,0.021348,22.622625,49.40781,-37.301414,-1.37,-1.26,-2.83
-9.692223,0.067041,0.440556,0.034582,0.001573,0.019084,22.622625,49.40781,-37.301414,-1.37,-1.26,-2.83
-9.692223,0.067041,0.440556,0.034582,0.001573,0.019084,22.622625,49.40781,-37.301414,-1.37,-1.27,-2.84
-9.692223,0.067041,0.454922,0.033516,-0.00402,0.019218,22.622625,49.40781,-37.301414,-1.38,-1.27,-2.84
-9.692223,0.086196,0.450133,0.03365,0.001573,0.020682,22.622625,49.40781,-37.301414,-1.38,-1.27,-2.85
-9.692223,0.07183,0.469287,0.033783,-0.002156,0.016954,22.622625,49.40781,-37.301414,-1.38,-1.28,-2.85
-9.692223,0.07183,0.469287,0.033783,-0.002156,0.016954,22.622625,49.40781,-37.301414,-1.39,-1.28,-2.86
-9.711378,0.07183,0.445344,0.035913,0.00104,0.020816,24.613414,50.312717,-38.877529,-1.39,-1.28,-2.87
-9.697011,0.057464,0.445344,0.034848,-0.001224,0.018419,24.613414,50.312717,-38.877529,-1.39,-1.28,-2.87
-9.697011,0.057464,0.445344,0.034848,-0.001224,0.018419,24.613414,50.312717,-38.877529,-1.4,-1.29,-2.88
-9.692223,0.047886,0.454922,0.033783,-0.001623,0.01975,24.613414,50.312717,-38.877529,-1.4,-1.29,-2.88
-9.697011,0.057464,0.454922,0.034449,0.000907,0.019883,24.613414,50.312717,-38.877529,-1.4,-1.29,-2.89
-9.697011,0.057464,0.454922,0.034449,0.000907,0.019883,24.613414,50.312717,-38.877529,-1.4,-1.3,-2.89
-9.7018,0.047886,0.464499,0.033916,-0.00149,0.018685,24.613414,50.312717,-38.877529,-1.41,-1.3,-2.9
-9.692223,0.062252,0.450133,0.033516,0.001173,0.02015,24.613414,50.312717,-38.877529,-1.41,-1.3,-2.9
-9.692223,0.062252,0.450133,0.033516,0.001173,0.02015,24.613414,50.312717,-38.877529,-1.41,-1.31,-2.91
-9.692223,0.047886,0.474076,0.03325,-0.002156,0.018286,24.613414,50.312717,-38.877529,-1.42,-1.31,-2.92
-9.687434,0.052675,0.435767,0.033516,0.000907,0.021215,22.622625,50.131736,-37.301414,-1.42,-1.31,-2.92
-9.687434,0.052675,0.45971,0.032717,-0.001091,0.018419,22.622625,50.131736,-37.301414,-1.42,-1.32,-2.93
-9.687434,0.052675,0.45971,0.032717,-0.001091,0.018419,22.622625,50.131736,-37.301414,-1.42,-1.32,-2.93
-9.706589,0.067041,0.45971,0.034582,-0.001623,0.01975,22.622625,50.131736,-37.301414,-1.43,-1.32,-2.94
-9.7018,0.057464,0.421401,0.034049,-0.000425,0.019883,22.622625,50.131736,-37.301414,-1.43,-1.32,-2.94
-9.7018,0.057464,0.421401,0.034049,-0.000425,0.019883,22.622625,50.131736,-37.301414,-1.43,-1.33,-2.95
-9.673069,0.067041,0.440556,0.034182,-0.002822,0.018552,22.622625,50.131736,-37.301414,-1.44,-1.33,-2.96
-9.692223,0.076618,0.454922,0.034182,0.001706,0.020283,22.622625,50.131736,-37.301414,-1.44,-1.33,-2.96
-9.692223,0.076618,0.454922,0.034182,0.001706,0.020283,22.622625,50.131736,-37.301414,-1.44,-1.34,-2.97
-9.692223,0.057464,0.440556,0.033117,-0.000824,0.018419,23.165567,48.502906,-37.126289,-1.44,-1.34,-2.97
-9.692223,0.057464,0.435767,0.033516,0.000241,0.01975,23.165567,48.502906,-37.126289,-1.45,-1.34,-2.98
-9.692223,0.057464,0.435767,0.033516,0.000241,0.01975,23.165567,48.502906,-37.126289,-1.45,-1.35,-2.98
-9.7018,0.062252,0.430978,0.03325,0.00064,0.018818,23.165567,48.502906,-37.126289,-1.45,-1.35,-2.99
-9.692223,0.062252,0.454922,0.03325,-0.000957,0.019218,23.165567,48.502906,-37.126289,-1.46,-1.35,-2.99
-9.692223,0.062252,0.454922,0.03325,-0.000957,0.019218,23.165567,48.502906,-37.126289,-1.46,-1.35,-3
-9.687434,0.067041,0.450133,0.034582,-0.000292,0.018419,23.165567,48.502906,-37.126289,-1.46,-1.36,-3.01
-9.687434,0.07183,0.445344,0.035381,-0.001357,0.019351,23.165567,48.502906,-37.126289,-1.46,-1.36,-3.01
-9.7018,0.076618,0.464499,0.034315,-0.000158,0.020549,22.441642,49.950756,-38.877529,-1.47,-1.36,-3.02
-9.7018,0.076618,0.464499,0.034315,-0.000158,0.020549,22.441642,49.950756,-38.877529,-1.47,-1.37,-3.02
-9.682645,0.07183,0.450133,0.034449,-0.002023,0.018152,22.441642,49.950756,-38.877529,-1.47,-1.37,-3.03
-9.7018,0.07183,0.435767,0.033383,0.000108,0.020816,22.441642,49.950756,-38.877529,-1.48,-1.37,-3.03
-9.7018,0.07183,0.435767,0.033383,0.000108,0.020816,22.441642,49.950756,-38.877529,-1.48,-1.38,-3.04
-9.692223,0.047886,0.450133,0.033383,0.000507,0.019084,22.441642,49.950756,-38.877529,-1.48,-1.38,-3.04
-9.677857,0.052675,0.450133,0.033117,-0.000425,0.019084,22.441642,49.950756,-38.877529,-1.49,-1.38,-3.05
-9.677857,0.052675,0.450133,0.033117,-0.000425,0.019084,22.441642,49.950756,-38.877529,-1.49,-1.39,-3.06
-9.687434,0.067041,0.445344,0.033516,0.000774,0.021082,22.441642,49.950756,-38.877529,-1.49,-1.39,-3.06
-9.682645,0.062252,0.454922,0.032717,-0.001756,0.018685,21.71772,48.864868,-37.476535,-1.49,-1.39,-3.07
-9.682645,0.062252,0.454922,0.032717,-0.001756,0.018685,21.71772,48.864868,-37.476535,-1.5,-1.4,-3.07
-9.668279,0.057464,0.435767,0.033916,0.000241,0.018951,21.71772,48.864868,-37.476535,-1.5,-1.4,-3.08
-9.677857,0.062252,0.450133,0.034315,-0.000425,0.01975,21.71772,48.864868,-37.476535,-1.5,-1.4,-3.08
-9.716166,0.067041,0.474076,0.034715,-0.000957,0.020949,21.71772,48.864868,-37.476535,-1.51,-1.4,-3.09
-9.716166,0.067041,0.474076,0.034715,-0.000957,0.020949,21.71772,48.864868,-37.476535,-1.51,-1.41,-3.09
-9.697011,0.038309,0.464499,0.033516,-0.000824,0.018019,21.71772,48.864868,-37.476535,-1.51,-1.41,-3.1
-9.687434,0.062252,0.474076,0.034049,0.000241,0.02015,21.71772,48.864868,-37.476535,-1.52,-1.41,-3.11
-9.687434,0.062252,0.474076,0.034049,0.000241,0.02015,21.71772,48.864868,-37.476535,-1.52,-1.42,-3.11
-9.706589,0.07183,0.450133,0.034315,-0.000691,0.020549,21.71772,48.864868,-37.476535,-1.52,-1.42,-3.12
-9.682645,0.052675,0.42619,0.03365,-0.00149,0.019084,23.165567,50.312717,-38.877529,-1.52,-1.42,-3.12
-9.682645,0.052675,0.42619,0.03365,-0.00149,0.019084,23.165567,50.312717,-38.877529,-1.53,-1.43,-3.13
-9.697011,0.047886,0.435767,0.034049,-0.001224,0.020949,23.165567,50.312717,-38.877529,-1.53,-1.43,-3.13
-9.687434,0.052675,0.435767,0.034049,-0.000957,0.020017,23.165567,50.312717,-38.877529,-1.53,-1.43,-3.14
-9.687434,0.052675,0.435767,0.034049,-0.000957,0.020017,23.165567,50.312717,-38.877529,-1.54,-1.44,-3.14
-9.697011,0.07183,0.474076,0.035247,0.000374,0.019218,23.165567,50.312717,-38.877529,-1.54,-1.44,-3.15
-9.687434,0.067041,0.454922,0.034449,0.001173,0.019218,23.165567,50.312717,-38.877529,-1.54,-1.44,-3.16
-9.687434,0.067041,0.454922,0.034449,0.001173,0.019218,23.165567,50.312717,-38.877529,-1.54,-1.44,-3.16
-9.697011,0.07183,0.464499,0.033916,-0.000691,0.020017,23.165567,50.312717,-38.877529,-1.55,-1.45,-3.17
-9.7018,0.07183,0.42619,0.033916,-0.000558,0.020283,21.71772,48.502906,-37.476535,-1.55,-1.45,-3.17
-9.706589,0.07183,0.440556,0.034315,-0.000292,0.018419,21.71772,48.502906,-37.476535,-1.55,-1.45,-3.18
-9.706589,0.07183,0.440556,0.034315,-0.000292,0.018419,21.71772,48.502906,-37.476535,-1.56,-1.46,-3.18
-9.7018,0.057464,0.464499,0.034182,-0.000957,0.018419,21.71772,48.502906,-37.476535,-1.56,-1.46,-3.19
-9.706589,0.067041,0.450133,0.034315,-0.000292,0.019484,21.71772,48.502906,-37.476535,-1.56,-1.46,-3.19
-9.706589,0.067041,0.450133,0.034315,-0.000292,0.019484,21.71772,48.502906,-37.476535,-1.57,-1.47,-3.2
-9.7018,0.057464,0.464499,0.034715,-0.000824,0.019218,21.71772,48.502906,-37.476535,-1.57,-1.47,-3.21
-9.7018,0.081407,0.464499,0.034049,-0.000158,0.019617,21.71772,48.502906,-37.476535,-1.57,-1.47,-3.21
-9.7018,0.081407,0.464499,0.034049,-0.000158,0.019617,21.71772,48.502906,-37.476535,-1.57,-1.48,-3.22
-9.706589,0.067041,0.445344,0.032851,-0.000957,0.018419,22.079681,49.58879,-38.177032,-1.58,-1.48,-3.22
-9.7018,0.047886,0.440556,0.033117,-0.000292,0.018419,22.079681,49.58879,-38.177032,-1.58,-1.48,-3.23
-9.7018,0.047886,0.440556,0.033117,-0.000292,0.018419,22.079681,49.58879,-38.177032,-1.58,-1.49,-3.23
-9.677857,0.067041,0.450133,0.032851,0.000108,0.019484,22.079681,49.58879,-38.177032,-1.59,-1.49,-3.24
-9.7018,0.057464,0.450133,0.032984,-0.000558,0.018419,22.079681,49.58879,-38.177032,-1.59,-1.49,-3.24
-9.682645,0.067041,0.450133,0.03365,-0.000025,0.018019,22.079681,49.58879,-38.177032,-1.59,-1.49,-3.25
-9.682645,0.067041,0.450133,0.03365,-0.000025,0.018019,22.079681,49.58879,-38.177032,-1.6,-1.5,-3.26
-9.687434,0.052675,0.45971,0.034582,-0.000158,0.019883,22.079681,49.58879,-38.177032,-1.6,-1.5,-3.26
-9.706589,0.047886,0.435767,0.035114,0.000108,0.019484,22.079681,49.58879,-38.177032,-1.6,-1.5,-3.27
-9.706589,0.047886,0.435767,0.035114,0.000108,0.019484,22.079681,49.58879,-38.177032,-1.6,-1.51,-3.27
-9.7018,0.067041,0.454922,0.034981,-0.001091,0.018951,23.346548,49.769775,-38.702404,-1.61,-1.51,-3.28
-9.687434,0.076618,0.454922,0.033783,-0.001091,0.018152,23.346548,49.769775,-38.702404,-1.61,-1.51,-3.28
-9.687434,0.076618,0.454922,0.033783,-0.001091,0.018152,23.346548,49.769775,-38.702404,-1.61,-1.52,-3.29
-9.692223,0.047886,0.464499,0.03365,0.000507,0.018685,23.346548,49.769775,-38.702404,-1.62,-1.52,-3.3
-9.7018,0.07183,0.450133,0.033916,0.000774,0.019218,23.346548,49.769775,-38.702404,-1.62,-1.52,-3.3
-9.7018,0.07183,0.450133,0.033916,0.000774,0.019218,23.346548,49.769775,-38.702404,-1.62,-1.53,-3.31
-9.697011,0.062252,0.435767,0.034449,0.001173,0.018552,23.346548,49.769775,-38.702404,-1.63,-1.53,-3.31
-9.682645,0.047886,0.45971,0.033383,-0.002422,0.014823,23.346548,49.769775,-38.702404,-1.63,-1.53,-3.32
-9.682645,0.047886,0.45971,0.033383,-0.002422,0.014823,23.346548,49.769775,-38.702404,-1.63,-1.54,-3.32
-9.687434,0.052675,0.42619,0.032052,-0.004553,0.012027,22.079681,49.58879,-37.476535,-1.63,-1.54,-3.33
-9.687434,0.067041,0.440556,0.033783,-0.002156,0.019218,22.079681,49.58879,-37.476535,-1.64,-1.54,-3.33
-9.692223,0.047886,0.464499,0.032717,-0.001224,0.018951,22.079681,49.58879,-37.476535,-1.64,-1.54,-3.34
-9.692223,0.047886,0.464499,0.032717,-0.001224,0.018951,22.079681,49.58879,-37.476535,-1.64,-1.55,-3.35
-9.692223,0.067041,0.435767,0.032984,0.001972,0.021748,22.079681,49.58879,-37.476535,-1.65,-1.55,-3.35
-9.692223,0.057464,0.464499,0.033516,-0.002422,0.017886,22.079681,49.58879,-37.476535,-1.65,-1.55,-3.36
-9.692223,0.057464,0.464499,0.033516,-0.002422,0.017886,22.079681,49.58879,-37.476535,-1.65,-1.56,-3.36
-9.697011,0.057464,0.469287,0.034049,0.000907,0.019883,22.079681,49.58879,-37.476535,-1.66,-1.56,-3.37
-9.687434,0.076618,0.42619,0.034049,0.002771,0.02228,23.165567,47.417018,-37.126289,-1.66,-1.56,-3.37
-9.687434,0.076618,0.42619,0.034049,0.002771,0.02228,23.165567,47.417018,-37.126289,-1.66,-1.57,-3.38
-9.692223,0.047886,0.45971,0.033516,-0.001224,0.016688,23.165567,47.417018,-37.126289,-1.66,-1.57,-3.39
-9.677857,0.062252,0.440556,0.032984,-0.002023,0.01762,23.165567,47.417018,-37.126289,-1.67,-1.57,-3.39
-9.677857,0.062252,0.440556,0.032984,-0.002023,0.01762,23.165567,47.417018,-37.126289,-1.67,-1.58,-3.4
-9.7018,0.067041,0.450133,0.034182,-0.00149,0.017886,23.165567,47.417018,-37.126289,-1.67,-1.58,-3.4
-9.692223,0.062252,0.464499,0.033783,0.000108,0.01762,23.165567,47.417018,-37.126289,-1.68,-1.58,-3.41
-9.692223,0.062252,0.464499,0.033783,0.000108,0.01762,23.165567,47.417018,-37.126289,-1.68,-1.59,-3.41
-9.711378,0.100562,0.445344,0.034049,0.00104,0.02015,23.165567,47.417018,-37.126289,-1.68,-1.59,-3.42
-9.687434,0.067041,0.440556,0.03325,-0.004553,0.012426,22.079681,49.950756,-37.126289,-1.68,-1.59,-3.42
-9.706589,0.062252,0.450133,0.034182,-0.000025,0.021348,22.079681,49.950756,-37.126289,-1.69,-1.59,-3.43
-9.706589,0.062252,0.450133,0.034182,-0.000025,0.021348,22.079681,49.950756,-37.126289,-1.69,-1.6,-3.44
-9.7018,0.062252,0.464499,0.033783,-0.003754,0.020549,22.079681,49.950756,-37.126289,-1.69,-1.6,-3.44
-9.7018,0.062252,0.445344,0.034182,-0.000425,0.021481,22.079681,49.950756,-37.126289,-1.7,-1.6,-3.45
-9.7018,0.062252,0.445344,0.034182,-0.000425,0.021481,22.079681,49.950756,-37.126289,-1.7,-1.61,-3.45
-9.687434,0.062252,0.440556,0.03365,0.001173,0.022547,22.079681,49.950756,-37.126289,-1.7,-1.61,-3.46
-9.692223,0.076618,0.454922,0.034848,0.001173,0.020949,22.079681,49.950756,-37.126289,-1.7,-1.61,-3.46
-9.692223,0.076618,0.454922,0.034848,0.001173,0.020949,22.079681,49.950756,-37.126289,-1.71,-1.62,-3.47
-9.692223,0.057464,0.450133,0.03325,0.001706,0.017753,22.079681,49.950756,-37.126289,-1.71,-1.62,-3.47
-9.697011,0.052675,0.435767,0.033117,0.000907,0.018818,22.984586,50.131736,-36.951164,-1.71,-1.62,-3.48
-9.697011,0.052675,0.435767,0.033117,0.000907,0.018818,22.984586,50.131736,-36.951164,-1.72,-1.63,-3.49
-9.697011,0.076618,0.435767,0.034715,0.000507,0.022014,22.984586,50.131736,-36.951164,-1.72,-1.63,-3.49
-9.697011,0.052675,0.464499,0.033516,-0.001623,0.019484,22.984586,50.131736,-36.951164,-1.72,-1.63,-3.5
-9.692223,0.057464,0.42619,0.03365,0.002505,0.020949,22.984586,50.131736,-36.951164,-1.72,-1.63,-3.5
-9.692223,0.057464,0.42619,0.03365,0.002505,0.020949,22.984586,50.131736,-36.951164,-1.73,-1.64,-3.51
-9.706589,0.07183,0.474076,0.032185,-0.004286,0.019484,22.984586,50.131736,-36.951164,-1.73,-1.64,-3.51
-9.697011,0.067041,0.440556,0.034049,0.00104,0.019484,22.984586,50.131736,-36.951164,-1.73,-1.64,-3.52
-9.697011,0.067041,0.440556,0.034049,0.00104,0.019484,22.984586,50.131736,-36.951164,-1.74,-1.65,-3.53
-9.7018,0.067041,0.430978,0.034315,-0.001756,0.018951,22.260662,49.40781,-39.052654,-1.74,-1.65,-3.53
-9.7018,0.07183,0.435767,0.032984,-0.000025,0.021481,22.260662,49.40781,-39.052654,-1.74,-1.65,-3.54
-9.7018,0.07183,0.435767,0.032984,-0.000025,0.021481,22.260662,49.40781,-39.052654,-1.75,-1.66,-3.54
-9.687434,0.067041,0.454922,0.034182,-0.000425,0.01975,22.260662,49.40781,-39.052654,-1.75,-1.66,-3.55
-9.711378,0.052675,0.464499,0.034582,-0.000292,0.019617,22.260662,49.40781,-39.052654,-1.75,-1.66,-3.55
-9.711378,0.052675,0.464499,0.034582,-0.000292,0.019617,22.260662,49.40781,-39.052654,-1.75,-1.67,-3.56
-9.7018,0.067041,0.469287,0.034449,0.001706,0.019617,22.260662,49.40781,-39.052654,-1.76,-1.67,-3.56
-9.7018,0.076618,0.478865,0.033916,-0.001357,0.019617,22.260662,49.40781,-39.052654,-1.76,-1.67,-3.57
-9.7018,0.076618,0.478865,0.033916,-0.001357,0.019617,22.260662,49.40781,-39.052654,-1.76,-1.67,-3.57
-9.682645,0.047886,0.435767,0.034449,0.000774,0.018951,21.8987,48.683887,-37.301414,-1.77,-1.68,-3.58
-9.682645,0.067041,0.430978,0.033516,0.000108,0.020283,21.8987,48.683887,-37.301414,-1.77,-1.68,-3.59
-9.7018,0.07183,0.45971,0.03365,-0.001357,0.018951,21.8987,48.683887,-37.301414,-1.77,-1.68,-3.59
-9.7018,0.07183,0.45971,0.03365,-0.001357,0.018951,21.8987,48.683887,-37.301414,-1.78,-1.69,-3.6
-9.7018,0.067041,0.450133,0.03325,-0.000025,0.020416,21.8987,48.683887,-37.301414,-1.78,-1.69,-3.6
-9.697011,0.047886,0.445344,0.03325,-0.000558,0.01975,21.8987,48.683887,-37.301414,-1.78,-1.69,-3.61
-9.697011,0.047886,0.445344,0.03325,-0.000558,0.01975,21.8987,48.683887,-37.301414,-1.78,-1.7,-3.61
-9.687434,0.062252,0.445344,0.033117,-0.000158,0.01975,21.8987,48.683887,-37.301414,-1.79,-1.7,-3.62
-9.692223,0.052675,0.450133,0.03365,-0.000425,0.019351,21.8987,48.683887,-37.301414,-1.79,-1.7,-3.62
-9.692223,0.052675,0.450133,0.03365,-0.000425,0.019351,21.8987,48.683887,-37.301414,-1.79,-1.71,-3.63
-9.697011,0.067041,0.435767,0.033783,-0.000957,0.019617,23.165567,50.674678,-38.877529,-1.8,-1.71,-3.63
-9.697011,0.081407,0.445344,0.033916,-0.000957,0.019617,23.165567,50.674678,-38.877529,-1.8,-1.71,-3.64
-9.697011,0.081407,0.445344,0.033916,-0.000957,0.019617,23.165567,50.674678,-38.877529,-1.8,-1.72,-3.65
-9.7018,0.067041,0.445344,0.033516,-0.000957,0.018818,23.165567,50.674678,-38.877529,-1.8,-1.72,-3.65
-9.7018,0.081407,0.464499,0.03325,0.00064,0.019484,23.165567,50.674678,-38.877529,-1.81,-1.72,-3.66
-9.7018,0.081407,0.464499,0.03325,0.00064,0.019484,23.165567,50.674678,-38.877529,-1.81,-1.73,-3.66
-9.687434,0.081407,0.464499,0.032584,-0.001224,0.02015,23.165567,50.674678,-38.877529,-1.81,-1.73,-3.67
-9.716166,0.067041,0.450133,0.033383,0.000241,0.021082,23.165567,50.674678,-38.877529,-1.82,-1.73,-3.67
-9.687434,0.081407,0.42619,0.033516,0.000241,0.02015,20.993795,49.58879,-37.826786,-1.82,-1.73,-3.68
-9.687434,0.081407,0.42619,0.033516,0.000241,0.02015,20.993795,49.58879,-37.826786,-1.82,-1.74,-3.68
-9.682645,0.076618,0.445344,0.03365,-0.000957,0.019351,20.993795,49.58879,-37.826786,-1.83,-1.74,-3.69
-9.682645,0.076618,0.45971,0.034582,0.00064,0.02015,20.993795,49.58879,-37.826786,-1.83,-1.74,-3.69
-9.682645,0.076618,0.45971,0.034582,0.00064,0.02015,20.993795,49.58879,-37.826786,-1.83,-1.75,-3.7
-9.7018,0.062252,0.469287,0.033383,-0.001357,0.019218,20.993795,49.58879,-37.826786,-1.83,-1.75,-3.71
-9.697011,0.076618,0.454922,0.034182,0.000907,0.020682,20.993795,49.58879,-37.826786,-1.84,-1.75,-3.71
-9.697011,0.076618,0.454922,0.034182,0.000907,0.020682,20.993795,49.58879,-37.826786,-1.84,-1.76,-3.72
-9.697011,0.057464,0.469287,0.033916,-0.000691,0.018552,20.993795,49.58879,-37.826786,-1.84,-1.76,-3.72
-9.692223,0.076618,0.440556,0.034315,0.001306,0.020816,22.622625,48.683887,-38.001907,-1.85,-1.76,-3.73
-9.692223,0.076618,0.440556,0.034315,0.001306,0.020816,22.622625,48.683887,-38.001907,-1.85,-1.77,-3.73
-9.7018,0.067041,0.435767,0.033516,-0.000158,0.020682,22.622625,48.683887,-38.001907,-1.85,-1.77,-3.74
-9.692223,0.062252,0.454922,0.032717,-0.001091,0.018552,22.622625,48.683887,-38.001907,-1.86,-1.77,-3.74
-9.692223,0.062252,0.454922,0.032717,-0.001091,0.018552,22.622625,48.683887,-38.001907,-1.86,-1.78,-3.75
-9.7018,0.07183,0.469287,0.034315,0.000907,0.019617,22.622625,48.683887,-38.001907,-1.86,-1.78,-3.75
-9.687434,0.07183,0.450133,0.034182,-0.000957,0.018818,22.622625,48.683887,-38.001907,-1.86,-1.78,-3.76
-9.682645,0.062252,0.45971,0.034049,0.000241,0.019617,22.622625,48.683887,-38.001907,-1.87,-1.78,-3.77
-9.682645,0.062252,0.45971,0.034049,0.000241,0.019617,22.622625,48.683887,-38.001907,-1.87,-1.79,-3.77
-9.677857,0.057464,0.454922,0.035247,-0.001091,0.017353,23.165567,48.864868,-37.126289,-1.87,-1.79,-3.78
-9.682645,0.057464,0.450133,0.034315,-0.001091,0.018286,23.165567,48.864868,-37.126289,-1.88,-1.79,-3.78
-9.682645,0.057464,0.450133,0.034315,-0.001091,0.018286,23.165567,48.864868,-37.126289,-1.88,-1.8,-3.79
-9.7018,0.076618,0.450133,0.034582,0.000108,0.018818,23.165567,48.864868,-37.126289,-1.88,-1.8,-3.79
-9.692223,0.076618,0.454922,0.033783,-0.002023,0.019218,23.165567,48.864868,-37.126289,-1.88,-1.8,-3.8
-9.692223,0.076618,0.454922,0.033783,-0.002023,0.019218,23.165567,48.864868,-37.126289,-1.89,-1.81,-3.81
-9.692223,0.067041,0.454922,0.033516,0.000774,0.019484,23.165567,48.864868,-37.126289,-1.89,-1.81,-3.81
-9.687434,0.043098,0.469287,0.03325,-0.000025,0.019883,23.165567,48.864868,-37.126289,-1.89,-1.81,-3.82
-9.687434,0.043098,0.469287,0.03325,-0.000025,0.019883,23.165567,48.864868,-37.126289,-1.9,-1.82,-3.82
-9.692223,0.047886,0.454922,0.033783,-0.000824,0.019218,23.165567,48.864868,-37.126289,-1.9,-1.82,-3.83
-9.682645,0.062252,0.411824,0.033916,-0.000691,0.018818,22.441642,49.226829,-38.877529,-1.9,-1.82,-3.83
-9.692223,0.062252,0.445344,0.034315,-0.000425,0.020283,22.441642,49.226829,-38.877529,-1.9,-1.83,-3.84
-9.692223,0.062252,0.445344,0.034315,-0.000425,0.020283,22.441642,49.226829,-38.877529,-1.91,-1.83,-3.84
-9.687434,0.057464,0.445344,0.033516,0.000374,0.018818,22.441642,49.226829,-38.877529,-1.91,-1.83,-3.85
-9.668279,0.07183,0.45971,0.033383,-0.000957,0.018419,22.441642,49.226829,-38.877529,-1.91,-1.83,-3.85
-9.668279,0.07183,0.45971,0.033383,-0.000957,0.018419,22.441642,49.226829,-38.877529,-1.92,-1.84,-3.86
-9.677857,0.052675,0.450133,0.033916,-0.000025,0.020283,22.441642,49.226829,-38.877529,-1.92,-1.84,-3.87
-9.697011,0.067041,0.440556,0.032851,-0.001224,0.018818,22.441642,49.226829,-38.877529,-1.92,-1.84,-3.87
-9.697011,0.067041,0.440556,0.032851,-0.001224,0.018818,22.441642,49.226829,-38.877529,-1.93,-1.85,-3.88
-9.687434,0.07183,0.430978,0.03365,-0.000425,0.019218,23.708509,49.045848,-38.352157,-1.93,-1.85,-3.88
-9.692223,0.067041,0.407035,0.034715,0.000241,0.019484,23.708509,49.045848,-38.352157,-1.93,-1.85,-3.89
-9.692223,0.067041,0.407035,0.034715,0.000241,0.019484,23.708509,49.045848,-38.352157,-1.93,-1.86,-3.89
-9.682645,0.07183,0.440556,0.034848,-0.000957,0.018552,23.708509,49.045848,-38.352157,-1.94,-1.86,-3.9
-9.692223,0.067041,0.454922,0.034315,-0.000158,0.019617,23.708509,49.045848,-38.352157,-1.94,-1.86,-3.9
-9.687434,0.07183,0.440556,0.032851,0.000108,0.020283,23.708509,49.045848,-38.352157,-1.94,-1.87,-3.91
-9.687434,0.07183,0.440556,0.032851,0.000108,0.020283,23.708509,49.045848,-38.352157,-1.95,-1.87,-3.91
-9.7018,0.07183,0.440556,0.033916,-0.000425,0.020017,23.708509,49.045848,-38.352157,-1.95,-1.87,-3.92
-9.692223,0.062252,0.45971,0.034182,-0.001091,0.019883,24.070472,49.40781,-36.250667,-1.95,-1.88,-3.93
-9.692223,0.062252,0.45971,0.034182,-0.001091,0.019883,24.070472,49.40781,-36.250667,-1.95,-1.88,-3.93
-9.697011,0.081407,0.454922,0.034049,0.000374,0.020816,24.070472,49.40781,-36.250667,-1.96,-1.88,-3.94
-9.682645,0.067041,0.454922,0.033916,-0.000158,0.020549,24.070472,49.40781,-36.250667,-1.96,-1.89,-3.94
-9.682645,0.067041,0.454922,0.033916,-0.000158,0.020549,24.070472,49.40781,-36.250667,-1.96,-1.89,-3.95
-9.687434,0.057464,0.45971,0.034315,-0.000292,0.020283,24.070472,49.40781,-36.250667,-1.97,-1.89,-3.95
-9.7018,0.067041,0.45971,0.034182,-0.000158,0.020017,24.070472,49.40781,-36.250667,-1.97,-1.89,-3.96
-9.7018,0.067041,0.45971,0.034182,-0.000158,0.020017,24.070472,49.40781,-36.250667,-1.97,-1.9,-3.96
-9.7018,0.062252,0.445344,0.03325,-0.000691,0.019617,24.070472,49.40781,-36.250667,-1.97,-1.9,-3.97
-9.7018,0.067041,0.440556,0.033383,0.000241,0.02015,24.613414,49.950756,-36.075546,-1.98,-1.9,-3.98
-9.7018,0.067041,0.440556,0.033383,0.000241,0.02015,24.613414,49.950756,-36.075546,-1.98,-1.91,-3.98
-9.687434,0.07183,0.416612,0.03325,-0.000691,0.019484,24.613414,49.950756,-36.075546,-1.98,-1.91,-3.99
-9.692223,0.081407,0.445344,0.034715,-0.000558,0.020682,24.613414,49.950756,-36.075546,-1.98,-1.91,-3.99
-9.706589,0.067041,0.474076,0.033783,-0.001091,0.020682,24.613414,49.950756,-36.075546,-1.99,-1.91,-4
-9.706589,0.067041,0.474076,0.033783,-0.001091,0.020682,24.613414,49.950756,-36.075546,-1.99,-1.92,-4
-9.697011,0.086196,0.454922,0.034449,-0.000158,0.021881,24.613414,49.950756,-36.075546,-1.99,-1.92,-4.01
-9.697011,0.062252,0.445344,0.033916,-0.000558,0.01975,24.613414,49.950756,-36.075546,-2,-1.92,-4.02
-9.697011,0.062252,0.445344,0.033916,-0.000558,0.01975,24.613414,49.950756,-36.075546,-2,-1.93,-4.02
-9.677857,0.062252,0.435767,0.034582,0.00104,0.018019,24.613414,49.950756,-36.075546,-2,-1.93,-4.03
-9.687434,0.062252,0.416612,0.034582,-0.000158,0.019084,23.708509,49.769775,-37.301414,-2,-1.93,-4.03
-9.687434,0.062252,0.416612,0.034582,-0.000158,0.019084,23.708509,49.769775,-37.301414,-2.01,-1.93,-4.04
-9.687434,0.057464,0.435767,0.032984,0.001173,0.019617,23.708509,49.769775,-37.301414,-2.01,-1.94,-4.04
-9.697011,0.076618,0.430978,0.033516,0.000507,0.02015,23.708509,49.769775,-37.301414,-2.01,-1.94,-4.05
-9.697011,0.076618,0.430978,0.033516,0.000507,0.02015,23.708509,49.769775,-37.301414,-2.01,-1.94,-4.05
-9.697011,0.062252,0.469287,0.033383,-0.002023,0.018552,23.708509,49.769775,-37.301414,-2.02,-1.95,-4.06
-9.692223,0.062252,0.435767,0.034182,0.001706,0.02015,23.708509,49.769775,-37.301414,-2.02,-1.95,-4.07
-9.692223,0.067041,0.445344,0.032185,-0.002422,0.018152,23.708509,49.769775,-37.301414,-2.02,-1.95,-4.07
-9.692223,0.067041,0.445344,0.032185,-0.002422,0.018152,23.708509,49.769775,-37.301414,-2.03,-1.96,-4.08
-9.7018,0.076618,0.445344,0.03325,-0.000025,0.020283,23.708509,49.40781,-36.600917,-2.03,-1.96,-4.08
-9.673069,0.067041,0.464499,0.033383,-0.000425,0.018552,23.708509,49.40781,-36.600917,-2.03,-1.96,-4.09
-9.673069,0.067041,0.464499,0.033383,-0.000425,0.018552,23.708509,49.40781,-36.600917,-2.03,-1.97,-4.09
-9.687434,0.062252,0.45971,0.033516,0.000774,0.02015,23.708509,49.40781,-36.600917,-2.04,-1.97,-4.1
-9.740109,0.07183,0.469287,0.034049,0.001173,0.021348,23.708509,49.40781,-36.600917,-2.04,-1.97,-4.1
-9.740109,0.07183,0.469287,0.034049,0.001173,0.021348,23.708509,49.40781,-36.600917,-2.04,-1.97,-4.11
-9.682645,0.062252,0.469287,0.032185,-0.003754,0.015223,23.708509,49.40781,-36.600917,-2.05,-1.98,-4.12
-9.673069,0.076618,0.445344,0.034981,0.001439,0.020682,23.708509,49.40781,-36.600917,-2.05,-1.98,-4.12
-9.673069,0.076618,0.445344,0.034981,0.001439,0.020682,23.708509,49.40781,-36.600917,-2.05,-1.98,-4.13
-9.682645,0.07183,0.450133,0.033783,-0.000824,0.020416,23.527528,48.502906,-38.177032,-2.05,-1.99,-4.13
-9.7018,0.062252,0.469287,0.033783,-0.00149,0.018951,23.527528,48.502906,-38.177032,-2.06,-1.99,-4.14
-9.7018,0.062252,0.469287,0.033783,-0.00149,0.018951,23.527528,48.502906,-38.177032,-2.06,-1.99,-4.14
-9.692223,0.062252,0.45971,0.03365,0.000774,0.018152,23.527528,48.502906,-38.177032,-2.06,-2,-4.15
-9.677857,0.067041,0.469287,0.033516,-0.000425,0.019617,23.527528,48.502906,-38.177032,-2.07,-2,-4.15
-9.697011,0.076618,0.45971,0.034449,0.000907,0.021082,23.527528,48.502906,-38.177032,-2.07,-2,-4.16
-9.697011,0.076618,0.45971,0.034449,0.000907,0.021082,23.527528,48.502906,-38.177032,-2.07,-2.01,-4.16
-9.692223,0.047886,0.469287,0.033516,-0.002289,0.016954,23.527528,48.502906,-38.177032,-2.07,-2.01,-4.17
-9.687434,0.057464,0.450133,0.033783,0.000507,0.01975,23.527528,48.502906,-38.177032,-2.08,-2.01,-4.18
-9.687434,0.057464,0.450133,0.033783,0.000507,0.01975,23.527528,48.502906,-38.177032,-2.08,-2.02,-4.18
-9.687434,0.076618,0.416612,0.033916,-0.000824,0.020017,22.803606,49.226829,-35.024799,-2.08,-2.02,-4.19
-9.682645,0.052675,0.430978,0.033916,-0.000158,0.018951,22.803606,49.226829,-35.024799,-2.09,-2.02,-4.19
-9.682645,0.052675,0.430978,0.033916,-0.000158,0.018951,22.803606,49.226829,-35.024799,-2.09,-2.02,-4.2
-9.692223,0.057464,0.454922,0.034315,-0.000691,0.019484,22.803606,49.226829,-35.024799,-2.09,-2.03,-4.2
-9.697011,0.067041,0.45971,0.034182,-0.00149,0.018951,22.803606,49.226829,-35.024799,-2.09,-2.03,-4.21
-9.697011,0.067041,0.45971,0.034182,-0.00149,0.018951,22.803606,49.226829,-35.024799,-2.1,-2.03,-4.21
-9.687434,0.052675,0.421401,0.034449,0.000374,0.019484,22.803606,49.226829,-35.024799,-2.1,-2.04,-4.22
-9.7018,0.062252,0.45971,0.033383,0.000507,0.020816,22.803606,49.226829,-35.024799,-2.1,-2.04,-4.23
-9.692223,0.067041,0.445344,0.033783,-0.000025,0.019617,23.346548,49.045848,-35.900421,-2.1,-2.04,-4.23
-9.692223,0.067041,0.445344,0.033783,-0.000025,0.019617,23.346548,49.045848,-35.900421,-2.11,-2.04,-4.24
-9.673069,0.052675,0.464499,0.034981,0.00064,0.019484,23.346548,49.045848,-35.900421,-2.11,-2.05,-4.24
-9.682645,0.067041,0.445344,0.034981,0.00064,0.020283,23.346548,49.045848,-35.900421,-2.11,-2.05,-4.25
-9.682645,0.067041,0.445344,0.034981,0.00064,0.020283,23.346548,49.045848,-35.900421,-2.12,-2.05,-4.25
-9.687434,0.067041,0.454922,0.033516,-0.000957,0.019484,23.346548,49.045848,-35.900421,-2.12,-2.06,-4.26
-9.692223,0.052675,0.450133,0.034315,-0.000691,0.018818,23.346548,49.045848,-35.900421,-2.12,-2.06,-4.26
-9.692223,0.052675,0.450133,0.034315,-0.000691,0.018818,23.346548,49.045848,-35.900421,-2.12,-2.06,-4.27
-9.692223,0.07183,0.454922,0.033383,-0.000691,0.018818,23.346548,49.045848,-35.900421,-2.13,-2.07,-4.28
-9.687434,0.07183,0.411824,0.034315,0.000108,0.018286,24.251453,49.950756,-36.075546,-2.13,-2.07,-4.28
-9.687434,0.07183,0.411824,0.034315,0.000108,0.018286,24.251453,49.950756,-36.075546,-2.13,-2.07,-4.29
-9.682645,0.07183,0.45971,0.035114,-0.000558,0.019084,24.251453,49.950756,-36.075546,-2.13,-2.07,-4.29
-9.697011,0.062252,0.454922,0.034449,-0.000957,0.019617,24.251453,49.950756,-36.075546,-2.14,-2.08,-4.3
-9.697011,0.062252,0.454922,0.034449,-0.000957,0.019617,24.251453,49.950756,-36.075546,-2.14,-2.08,-4.3
-9.697011,0.062252,0.445344,0.034315,-0.000292,0.019084,24.251453,49.950756,-36.075546,-2.14,-2.08,-4.31
-9.687434,0.07183,0.45971,0.032984,-0.000691,0.018951,24.251453,49.950756,-36.075546,-2.15,-2.09,-4.32
-9.7018,0.07183,0.454922,0.033783,0.000507,0.019351,24.251453,49.950756,-36.075546,-2.15,-2.09,-4.32
-9.7018,0.07183,0.454922,0.033783,0.000507,0.019351,24.251453,49.950756,-36.075546,-2.15,-2.09,-4.33
-9.697011,0.076618,0.454922,0.034049,-0.000158,0.019084,23.889492,48.864868,-34.324306,-2.15,-2.09,-4.33
-9.692223,0.07183,0.42619,0.034182,0.000108,0.018818,23.889492,48.864868,-34.324306,-2.16,-2.1,-4.34
-9.692223,0.07183,0.42619,0.034182,0.000108,0.018818,23.889492,48.864868,-34.324306,-2.16,-2.1,-4.34
-9.682645,0.07183,0.445344,0.034182,-0.000158,0.019617,23.889492,48.864868,-34.324306,-2.16,-2.1,-4.35
-9.692223,0.07183,0.435767,0.033916,-0.000292,0.020283,23.889492,48.864868,-34.324306,-2.16,-2.11,-4.35
-9.692223,0.07183,0.435767,0.033916,-0.000292,0.020283,23.889492,48.864868,-34.324306,-2.17,-2.11,-4.36
-9.692223,0.057464,0.440556,0.034582,-0.000425,0.020283,23.889492,48.864868,-34.324306,-2.17,-2.11,-4.37
-9.692223,0.067041,0.464499,0.034449,0.000374,0.019484,23.889492,48.864868,-34.324306,-2.17,-2.11,-4.37
-9.692223,0.067041,0.464499,0.034449,0.000374,0.019484,23.889492,48.864868,-34.324306,-2.18,-2.12,-4.38
-9.697011,0.07183,0.430978,0.03365,0.000507,0.019084,23.889492,48.864868,-34.324306,-2.18,-2.12,-4.38
-9.697011,0.07183,0.430978,0.03325,-0.000824,0.020017,23.346548,47.959964,-36.250667,-2.18,-2.12,-4.39
-9.677857,0.081407,0.430978,0.034715,-0.000292,0.019883,23.346548,47.959964,-36.250667,-2.18,-2.13,-4.39
-9.677857,0.081407,0.430978,0.034715,-0.000292,0.019883,23.346548,47.959964,-36.250667,-2.19,-2.13,-4.4
-9.692223,0.057464,0.454922,0.033117,-0.001224,0.019351,23.346548,47.959964,-36.250667,-2.19,-2.13,-4.41
-9.687434,0.076618,0.454922,0.03325,-0.000158,0.020816,23.346548,47.959964,-36.250667,-2.19,-2.13,-4.41
-9.687434,0.076618,0.454922,0.03325,-0.000158,0.020816,23.346548,47.959964,-36.250667,-2.19,-2.14,-4.42
-9.682645,0.076618,0.474076,0.034449,-0.000957,0.019351,23.346548,47.959964,-36.250667,-2.2,-2.14,-4.42
-9.692223,0.07183,0.464499,0.034049,-0.000292,0.019218,23.346548,47.959964,-36.250667,-2.2,-2.14,-4.43
-9.692223,0.07183,0.464499,0.034049,-0.000292,0.019218,23.346548,47.959964,-36.250667,-2.2,-2.15,-4.43
-9.677857,0.067041,0.416612,0.034315,-0.000158,0.019617,24.794395,47.598003,-36.951164,-2.21,-2.15,-4.44
-9.692223,0.07183,0.435767,0.03325,-0.001224,0.019351,24.794395,47.598003,-36.951164,-2.21,-2.15,-4.44
-9.692223,0.07183,0.435767,0.03325,-0.001224,0.019351,24.794395,47.598003,-36.951164,-2.21,-2.16,-4.45
-9.692223,0.07183,0.445344,0.032851,-0.000025,0.020549,24.794395,47.598003,-36.951164,-2.21,-2.16,-4.45
-9.692223,0.062252,0.450133,0.033516,-0.000691,0.01975,24.794395,47.598003,-36.951164,-2.22,-2.16,-4.46
-9.692223,0.067041,0.445344,0.034582,-0.000292,0.019883,24.794395,47.598003,-36.951164,-2.22,-2.17,-4.46
-9.692223,0.067041,0.445344,0.034582,-0.000292,0.019883,24.794395,47.598003,-36.951164,-2.22,-2.17,-4.47
-9.687434,0.07183,0.445344,0.033916,-0.000025,0.019484,24.794395,47.598003,-36.951164,-2.22,-2.17,-4.48
-9.682645,0.062252,0.435767,0.034449,0.000108,0.019484,22.984586,47.959964,-36.250667,-2.23,-2.17,-4.48
-9.682645,0.062252,0.435767,0.034449,0.000108,0.019484,22.984586,47.959964,-36.250667,-2.23,-2.18,-4.49
-9.673069,0.07183,0.42619,0.034449,-0.000292,0.019883,22.984586,47.959964,-36.250667,-2.23,-2.18,-4.49
-9.692223,0.076618,0.440556,0.03365,-0.001224,0.020682,22.984586,47.959964,-36.250667,-2.24,-2.18,-4.5
-9.692223,0.076618,0.440556,0.03365,-0.001224,0.020682,22.984586,47.959964,-36.250667,-2.24,-2.19,-4.5
-9.677857,0.067041,0.450133,0.033916,-0.000292,0.020017,22.984586,47.959964,-36.250667,-2.24,-2.19,-4.51
-9.697011,0.07183,0.454922,0.03365,-0.000691,0.019218,22.984586,47.959964,-36.250667,-2.24,-2.19,-4.51
-9.697011,0.07183,0.454922,0.03365,-0.000691,0.019218,22.984586,47.959964,-36.250667,-2.25,-2.2,-4.52
-9.7018,0.07183,0.464499,0.03365,-0.000957,0.01975,22.984586,47.959964,-36.250667,-2.25,-2.2,-4.52
-9.7018,0.062252,0.450133,0.034848,-0.000025,0.02015,22.984586,47.959964,-36.250667,-2.25,-2.2,-4.53
-9.7018,0.062252,0.450133,0.034848,-0.000025,0.02015,22.984586,47.959964,-36.250667,-2.26,-2.2,-4.54
-9.682645,0.076618,0.411824,0.03325,-0.001091,0.020017,23.165567,47.778984,-37.826786,-2.26,-2.21,-4.54
-9.677857,0.067041,0.435767,0.034449,-0.000425,0.019218,23.165567,47.778984,-37.826786,-2.26,-2.21,-4.55
-9.692223,0.062252,0.445344,0.034315,-0.001623,0.019484,23.165567,47.778984,-37.826786,-2.26,-2.21,-4.55
-9.692223,0.062252,0.445344,0.034315,-0.001623,0.019484,23.165567,47.778984,-37.826786,-2.27,-2.22,-4.56
-9.697011,0.081407,0.454922,0.033916,-0.000425,0.020416,23.165567,47.778984,-37.826786,-2.27,-2.22,-4.56
-9.692223,0.07183,0.45971,0.03365,-0.000957,0.017886,23.165567,47.778984,-37.826786,-2.27,-2.22,-4.57
-9.692223,0.07183,0.45971,0.03365,-0.000957,0.017886,23.165567,47.778984,-37.826786,-2.28,-2.23,-4.57
-9.697011,0.043098,0.45971,0.034981,-0.000025,0.02015,23.165567,47.778984,-37.826786,-2.28,-2.23,-4.58
-9.692223,0.07183,0.42619,0.034315,-0.000691,0.019484,24.613414,47.417018,-35.725296,-2.28,-2.23,-4.58
-9.692223,0.07183,0.42619,0.034315,-0.000691,0.019484,24.613414,47.417018,-35.725296,-2.28,-2.24,-4.59
-9.687434,0.062252,0.450133,0.03325,0.000374,0.018152,24.613414,47.417018,-35.725296,-2.29,-2.24,-4.59
-9.692223,0.090984,0.464499,0.033916,-0.000558,0.020549,24.613414,47.417018,-35.725296,-2.29,-2.24,-4.6
-9.692223,0.090984,0.464499,0.033916,-0.000558,0.020549,24.613414,47.417018,-35.725296,-2.29,-2.24,-4.61
-9.682645,0.057464,0.450133,0.034449,-0.000824,0.019084,24.613414,47.417018,-35.725296,-2.29,-2.25,-4.61
-9.682645,0.062252,0.454922,0.033783,-0.000957,0.01975,24.613414,47.417018,-35.725296,-2.3,-2.25,-4.62
-9.687434,0.07183,0.454922,0.033783,0.000108,0.019617,24.613414,47.417018,-35.725296,-2.3,-2.25,-4.62
-9.687434,0.07183,0.454922,0.033783,0.000108,0.019617,24.613414,47.417018,-35.725296,-2.3,-2.26,-4.63
-9.687434,0.07183,0.450133,0.033916,-0.000691,0.01975,23.346548,46.874076,-36.600917,-2.31,-2.26,-4.63
-9.692223,0.076618,0.435767,0.032984,0.000241,0.019484,23.346548,46.874076,-36.600917,-2.31,-2.26,-4.64
-9.692223,0.076618,0.435767,0.032984,0.000241,0.019484,23.346548,46.874076,-36.600917,-2.31,-2.27,-4.64
-9.687434,0.076618,0.445344,0.034182,-0.000425,0.019351,23.346548,46.874076,-36.600917,-2.31,-2.27,-4.65
-9.687434,0.062252,0.483653,0.034315,0.000907,0.01975,23.346548,46.874076,-36.600917,-2.32,-2.27,-4.65
-9.687434,0.062252,0.483653,0.034315,0.000907,0.01975,23.346548,46.874076,-36.600917,-2.32,-2.28,-4.66
-9.7018,0.086196,0.435767,0.03365,-0.000691,0.019484,23.346548,46.874076,-36.600917,-2.32,-2.28,-4.66
-9.692223,0.052675,0.435767,0.033383,-0.000025,0.018685,23.346548,46.874076,-36.600917,-2.33,-2.28,-4.67
-9.692223,0.052675,0.435767,0.033383,-0.000025,0.018685,23.346548,46.874076,-36.600917,-2.33,-2.28,-4.68
-9.697011,0.062252,0.421401,0.034049,-0.001224,0.019484,23.708509,47.236038,-37.301414,-2.33,-2.29,-4.68
-9.692223,0.076618,0.435767,0.033783,-0.002023,0.02015,23.708509,47.236038,-37.301414,-2.33,-2.29,-4.69
-9.697011,0.067041,0.450133,0.033916,-0.001756,0.020017,23.708509,47.236038,-37.301414,-2.34,-2.29,-4.69
-9.697011,0.067041,0.450133,0.033916,-0.001756,0.020017,23.708509,47.236038,-37.301414,-2.34,-2.3,-4.7
-9.706589,0.057464,0.450133,0.034182,-0.000292,0.02015,23.708509,47.236038,-37.301414,-2.34,-2.3,-4.7
-9.692223,0.07183,0.454922,0.03365,-0.001091,0.019484,23.708509,47.236038,-37.301414,-2.34,-2.3,-4.71
-9.692223,0.07183,0.454922,0.03365,-0.001091,0.019484,23.708509,47.236038,-37.301414,-2.35,-2.31,-4.71
-9.677857,0.067041,0.450133,0.034848,-0.000558,0.018419,23.708509,47.236038,-37.301414,-2.35,-2.31,-4.72
-9.697011,0.062252,0.454922,0.034049,0.000241,0.018818,23.708509,47.236038,-37.301414,-2.35,-2.31,-4.72
-9.697011,0.062252,0.454922,0.034049,0.000241,0.018818,23.708509,47.236038,-37.301414,-2.36,-2.32,-4.73
-9.692223,0.062252,0.435767,0.034315,-0.000558,0.02015,22.260662,48.683887,-36.600917,-2.36,-2.32,-4.73
-9.692223,0.076618,0.469287,0.033916,-0.001623,0.019617,22.260662,48.683887,-36.600917,-2.36,-2.32,-4.74
-9.692223,0.076618,0.469287,0.033916,-0.001623,0.019617,22.260662,48.683887,-36.600917,-2.36,-2.32,-4.74
-9.692223,0.067041,0.445344,0.033516,-0.000824,0.019084,22.260662,48.683887,-36.600917,-2.37,-2.33,-4.75
-9.682645,0.067041,0.454922,0.033783,-0.000158,0.020416,22.260662,48.683887,-36.600917,-2.37,-2.33,-4.75
-9.682645,0.067041,0.454922,0.033783,-0.000158,0.020416,22.260662,48.683887,-36.600917,-2.37,-2.33,-4.76
-9.687434,0.067041,0.469287,0.033916,-0.000425,0.019484,22.260662,48.683887,-36.600917,-2.38,-2.34,-4.77
-9.697011,0.057464,0.469287,0.03365,0.000374,0.020416,22.260662,48.683887,-36.600917,-2.38,-2.34,-4.77
-9.687434,0.076618,0.416612,0.033783,-0.000691,0.019351,22.260662,49.045848,-37.301414,-2.38,-2.34,-4.78
-9.687434,0.076618,0.416612,0.033783,-0.000691,0.019351,22.260662,49.045848,-37.301414,-2.38,-2.35,-4.78
-9.687434,0.047886,0.430978,0.033383,-0.000558,0.019218,22.260662,49.045848,-37.301414,-2.39,-2.35,-4.79
-9.697011,0.062252,0.464499,0.034449,-0.000425,0.01975,22.260662,49.045848,-37.301414,-2.39,-2.35,-4.79
-9.697011,0.062252,0.464499,0.034449,-0.000425,0.01975,22.260662,49.045848,-37.301414,-2.39,-2.36,-4.8
-9.7018,0.067041,0.45971,0.034182,-0.000025,0.019084,22.260662,49.045848,-37.301414,-2.4,-2.36,-4.8
-9.687434,0.062252,0.450133,0.033383,0.000374,0.019084,22.260662,49.045848,-37.301414,-2.4,-2.36,-4.81
-9.687434,0.062252,0.450133,0.033383,0.000374,0.019084,22.260662,49.045848,-37.301414,-2.4,-2.36,-4.81
-9.687434,0.062252,0.450133,0.033916,-0.000158,0.020416,22.260662,49.045848,-37.301414,-2.4,-2.37,-4.82
-9.692223,0.062252,0.435767,0.033783,-0.000691,0.01975,22.079681,48.502906,-38.527282,-2.41,-2.37,-4.82
-9.692223,0.062252,0.435767,0.033783,-0.000691,0.01975,22.079681,48.502906,-38.527282,-2.41,-2.37,-4.83
-9.692223,0.07183,0.42619,0.034715,-0.000158,0.018552,22.079681,48.502906,-38.527282,-2.41,-2.38,-4.83
-9.697011,0.076618,0.445344,0.034715,0.001706,0.019484,22.079681,48.502906,-38.527282,-2.42,-2.38,-4.84
-9.697011,0.057464,0.450133,0.034582,-0.000558,0.019218,22.079681,48.502906,-38.527282,-2.42,-2.38,-4.84
-9.697011,0.057464,0.450133,0.034582,-0.000558,0.019218,22.079681,48.502906,-38.527282,-2.42,-2.39,-4.85
-9.687434,0.067041,0.464499,0.033916,0.000374,0.018552,22.079681,48.502906,-38.527282,-2.42,-2.39,-4.85
-9.706589,0.067041,0.454922,0.03325,-0.000824,0.020682,22.079681,48.502906,-38.527282,-2.43,-2.39,-4.86
-9.706589,0.067041,0.454922,0.03325,-0.000824,0.020682,22.079681,48.502906,-38.527282,-2.43,-2.4,-4.86
-9.682645,0.067041,0.464499,0.03365,-0.001224,0.01762,22.803606,49.226829,-37.126289,-2.43,-2.4,-4.87
-9.682645,0.081407,0.430978,0.034449,0.001573,0.019351,22.803606,49.226829,-37.126289,-2.44,-2.4,-4.87
-9.682645,0.081407,0.430978,0.034449,0.001573,0.019351,22.803606,49.226829,-37.126289,-2.44,-2.4,-4.88
-9.711378,0.081407,0.440556,0.034315,0.002238,0.020283,22.803606,49.226829,-37.126289,-2.44,-2.41,-4.89
-9.682645,0.062252,0.469287,0.034049,-0.001224,0.013625,22.803606,49.226829,-37.126289,-2.44,-2.41,-4.89
-9.682645,0.062252,0.469287,0.034049,-0.001224,0.013625,22.803606,49.226829,-37.126289,-2.45,-2.41,-4.9
-9.677857,0.062252,0.440556,0.035381,0.001306,0.018286,22.803606,49.226829,-37.126289,-2.45,-2.42,-4.9
-9.692223,0.067041,0.450133,0.03365,-0.001224,0.02015,22.803606,49.226829,-37.126289,-2.45,-2.42,-4.91
-9.692223,0.067041,0.450133,0.03365,-0.001224,0.02015,22.803606,49.226829,-37.126289,-2.46,-2.42,-4.91
-9.697011,0.081407,0.474076,0.033783,-0.000425,0.020682,22.803606,49.226829,-37.126289,-2.46,-2.43,-4.92
-9.692223,0.047886,0.445344,0.034182,0.000507,0.018419,21.71772,47.417018,-35.375049,-2.46,-2.43,-4.92
-9.687434,0.052675,0.445344,0.034449,-0.000957,0.020017,21.71772,47.417018,-35.375049,-2.46,-2.43,-4.93
-9.687434,0.052675,0.445344,0.034449,-0.000957,0.020017,21.71772,47.417018,-35.375049,-2.47,-2.43,-4.93
-9.697011,0.062252,0.474076,0.032984,-0.003221,0.020816,21.71772,47.417018,-35.375049,-2.47,-2.44,-4.94
-9.697011,0.062252,0.464499,0.034582,-0.000957,0.020682,21.71772,47.417018,-35.375049,-2.47,-2.44,-4.94
-9.697011,0.062252,0.464499,0.034582,-0.000957,0.020682,21.71772,47.417018,-35.375049,-2.48,-2.44,-4.95
-9.692223,0.057464,0.464499,0.03365,-0.002156,0.018019,21.71772,47.417018,-35.375049,-2.48,-2.45,-4.95
-9.692223,0.067041,0.454922,0.033783,-0.002156,0.018685,21.71772,47.417018,-35.375049,-2.48,-2.45,-4.96
-9.692223,0.067041,0.454922,0.033783,-0.002156,0.018685,21.71772,47.417018,-35.375049,-2.48,-2.45,-4.97
-9.692223,0.07183,0.42619,0.033516,0.000374,0.021348,22.984586,48.321926,-34.499427,-2.49,-2.46,-4.97
-9.697011,0.052675,0.469287,0.03325,-0.001623,0.020283,22.984586,48.321926,-34.499427,-2.49,-2.46,-4.98
-9.697011,0.052675,0.469287,0.03325,-0.001623,0.020283,22.984586,48.321926,-34.499427,-2.49,-2.46,-4.98
-9.697011,0.052675,0.469287,0.033516,0.000241,0.02015,22.984586,48.321926,-34.499427,-2.5,-2.46,-4.99
-9.697011,0.057464,0.454922,0.03365,0.000774,0.019617,22.984586,48.321926,-34.499427,-2.5,-2.47,-4.99
-9.682645,0.052675,0.454922,0.034315,-0.001091,0.018818,22.984586,48.321926,-34.499427,-2.5,-2.47,-5
-9.682645,0.052675,0.454922,0.034315,-0.001091,0.018818,22.984586,48.321926,-34.499427,-2.5,-2.47,-5
-9.677857,0.062252,0.435767,0.034182,-0.000691,0.019484,22.984586,48.321926,-34.499427,-2.51,-2.48,-5.01
-9.682645,0.062252,0.430978,0.034315,0.000374,0.019351,20.631834,46.693096,-35.375049,-2.51,-2.48,-5.01
-9.682645,0.062252,0.430978,0.034315,0.000374,0.019351,20.631834,46.693096,-35.375049,-2.51,-2.48,-5.02
-9.697011,0.067041,0.454922,0.033516,-0.00149,0.01975,20.631834,46.693096,-35.375049,-2.51,-2.48,-5.02
-9.687434,0.067041,0.464499,0.033783,-0.000558,0.01975,20.631834,46.693096,-35.375049,-2.52,-2.49,-5.03
-9.687434,0.067041,0.464499,0.033783,-0.000558,0.01975,20.631834,46.693096,-35.375049,-2.52,-2.49,-5.03
-9.692223,0.081407,0.450133,0.033383,-0.00189,0.020416,20.631834,46.693096,-35.375049,-2.52,-2.49,-5.04
-9.7018,0.076618,0.450133,0.033916,-0.000824,0.01975,20.631834,46.693096,-35.375049,-2.53,-2.5,-5.05
-9.7018,0.076618,0.450133,0.033916,-0.000824,0.01975,20.631834,46.693096,-35.375049,-2.53,-2.5,-5.05
-9.692223,0.062252,0.450133,0.033117,-0.000558,0.019617,20.631834,46.693096,-35.375049,-2.53,-2.5,-5.06
-9.687434,0.052675,0.469287,0.034315,-0.000957,0.019351,20.631834,46.693096,-35.375049,-2.54,-2.51,-5.06
-9.687434,0.052675,0.469287,0.034315,-0.000957,0.019351,20.631834,46.693096,-35.375049,-2.54,-2.51,-5.07
-9.682645,0.07183,0.430978,0.033783,0.000108,0.020017,23.165567,48.140945,-35.375049,-2.54,-2.51,-5.07
-9.687434,0.062252,0.474076,0.03365,-0.000425,0.019084,23.165567,48.140945,-35.375049,-2.54,-2.51,-5.08
-9.682645,0.057464,0.445344,0.033916,0.00104,0.018951,23.165567,48.140945,-35.375049,-2.55,-2.52,-5.08
-9.682645,0.057464,0.445344,0.033916,0.00104,0.018951,23.165567,48.140945,-35.375049,-2.55,-2.52,-5.09
-9.697011,0.067041,0.45971,0.034715,0.000241,0.020017,23.165567,48.140945,-35.375049,-2.55,-2.52,-5.09
-9.692223,0.067041,0.450133,0.033916,0.000907,0.02015,23.165567,48.140945,-35.375049,-2.55,-2.53,-5.1
-9.692223,0.067041,0.450133,0.033916,0.000907,0.02015,23.165567,48.140945,-35.375049,-2.56,-2.53,-5.1
-9.687434,0.057464,0.445344,0.033383,-0.000292,0.019883,23.165567,48.140945,-35.375049,-2.56,-2.53,-5.11
-9.692223,0.067041,0.445344,0.033516,-0.001224,0.019484,20.450853,49.40781,-35.900421,-2.56,-2.54,-5.11
-9.692223,0.067041,0.445344,0.033516,-0.001224,0.019484,20.450853,49.40781,-35.900421,-2.57,-2.54,-5.12
-9.692223,0.057464,0.445344,0.034449,-0.000425,0.018951,20.450853,49.40781,-35.900421,-2.57,-2.54,-5.12
-9.687434,0.07183,0.454922,0.033383,-0.000025,0.018951,20.450853,49.40781,-35.900421,-2.57,-2.54,-5.13
-9.687434,0.07183,0.454922,0.033383,-0.000025,0.018951,20.450853,49.40781,-35.900421,-2.57,-2.55,-5.14
-9.7018,0.067041,0.454922,0.03365,-0.000558,0.018019,20.450853,49.40781,-35.900421,-2.58,-2.55,-5.14
-9.7018,0.052675,0.454922,0.034449,-0.000691,0.019883,20.450853,49.40781,-35.900421,-2.58,-2.55,-5.15
-9.697011,0.057464,0.445344,0.035247,-0.000691,0.019484,20.450853,49.40781,-35.900421,-2.58,-2.56,-5.15
-9.697011,0.057464,0.445344,0.035247,-0.000691,0.019484,20.450853,49.40781,-35.900421,-2.59,-2.56,-5.16
-9.682645,0.067041,0.430978,0.034582,-0.000158,0.020283,23.165567,48.502906,-36.425792,-2.59,-2.56,-5.16
-9.697011,0.076618,0.450133,0.033117,-0.000957,0.019883,23.165567,48.502906,-36.425792,-2.59,-2.56,-5.17
-9.697011,0.076618,0.450133,0.033117,-0.000957,0.019883,23.165567,48.502906,-36.425792,-2.59,-2.57,-5.17
-9.697011,0.07183,0.45971,0.033383,-0.000558,0.019218,23.165567,48.502906,-36.425792,-2.6,-2.57,-5.18
-9.682645,0.081407,0.454922,0.034715,0.000241,0.02015,23.165567,48.502906,-36.425792,-2.6,-2.57,-5.18
-9.682645,0.081407,0.454922,0.034715,0.000241,0.02015,23.165567,48.502906,-36.425792,-2.6,-2.58,-5.19
-9.692223,0.067041,0.474076,0.033783,-0.002156,0.019084,23.165567,48.502906,-36.425792,-2.6,-2.58,-5.19
-9.697011,0.07183,0.45971,0.034049,0.000241,0.020283,23.165567,48.502906,-36.425792,-2.61,-2.58,-5.2
-9.697011,0.07183,0.45971,0.034049,0.000241,0.020283,23.165567,48.502906,-36.425792,-2.61,-2.58,-5.2
-9.692223,0.052675,0.450133,0.033916,-0.001224,0.018552,22.260662,48.683887,-37.301414,-2.61,-2.59,-5.21
-9.7018,0.076618,0.440556,0.035381,-0.000025,0.020682,22.260662,48.683887,-37.301414,-2.62,-2.59,-5.21
-9.7018,0.076618,0.440556,0.035381,-0.000025,0.020682,22.260662,48.683887,-37.301414,-2.62,-2.59,-5.22
-9.682645,0.07183,0.435767,0.034848,-0.00189,0.017753,22.260662,48.683887,-37.301414,-2.62,-2.6,-5.22
-9.692223,0.067041,0.454922,0.034049,-0.001224,0.019617,22.260662,48.683887,-37.301414,-2.62,-2.6,-5.23
-9.697011,0.07183,0.474076,0.035514,0.001439,0.019883,22.260662,48.683887,-37.301414,-2.63,-2.6,-5.23
-9.697011,0.07183,0.474076,0.035514,0.001439,0.019883,22.260662,48.683887,-37.301414,-2.63,-2.61,-5.24
-9.692223,0.067041,0.464499,0.033783,-0.000691,0.019617,22.260662,48.683887,-37.301414,-2.63,-2.61,-5.24
-9.692223,0.057464,0.445344,0.034449,0.001173,0.019218,22.260662,48.683887,-37.301414,-2.64,-2.61,-5.25
-9.692223,0.057464,0.445344,0.034449,0.001173,0.019218,22.260662,48.683887,-37.301414,-2.64,-2.61,-5.25
-9.692223,0.062252,0.430978,0.034315,0.000374,0.019351,22.441642,49.950756,-35.375049,-2.64,-2.62,-5.26
-9.687434,0.07183,0.435767,0.035114,0.000774,0.020283,22.441642,49.950756,-35.375049,-2.64,-2.62,-5.26
-9.687434,0.07183,0.435767,0.035114,0.000774,0.020283,22.441642,49.950756,-35.375049,-2.65,-2.62,-5.27
-9.697011,0.07183,0.450133,0.033783,-0.000558,0.018951,22.441642,49.950756,-35.375049,-2.65,-2.63,-5.27
-9.682645,0.052675,0.450133,0.034049,0.000907,0.019484,22.441642,49.950756,-35.375049,-2.65,-2.63,-5.28
-9.682645,0.052675,0.450133,0.034049,0.000907,0.019484,22.441642,49.950756,-35.375049,-2.65,-2.63,-5.29
-9.697011,0.062252,0.454922,0.033516,-0.000025,0.02015,22.441642,49.950756,-35.375049,-2.66,-2.63,-5.29
-9.687434,0.062252,0.474076,0.034449,0.000374,0.019617,22.441642,49.950756,-35.375049,-2.66,-2.64,-5.3
-9.687434,0.062252,0.474076,0.034449,0.000374,0.019617,22.441642,49.950756,-35.375049,-2.66,-2.64,-5.3
-9.687434,0.07183,0.421401,0.033516,0.000108,0.020416,21.174776,47.598003,-36.600917,-2.66,-2.64,-5.31
-9.677857,0.062252,0.450133,0.034715,-0.000957,0.019617,21.174776,47.598003,-36.600917,-2.67,-2.65,-5.31
-9.692223,0.038309,0.454922,0.035247,-0.000957,0.020017,21.174776,47.598003,-36.600917,-2.67,-2.65,-5.32
-9.692223,0.038309,0.454922,0.035247,-0.000957,0.020017,21.174776,47.598003,-36.600917,-2.67,-2.65,-5.32
-9.7018,0.052675,0.42619,0.034848,0.000241,0.018685,21.174776,47.598003,-36.600917,-2.68,-2.65,-5.33
-9.697011,0.062252,0.469287,0.034715,-0.001224,0.018286,21.174776,47.598003,-36.600917,-2.68,-2.66,-5.33
-9.697011,0.062252,0.469287,0.034715,-0.001224,0.018286,21.174776,47.598003,-36.600917,-2.68,-2.66,-5.34
-9.706589,0.067041,0.454922,0.034848,0.000374,0.018419,21.174776,47.598003,-36.600917,-2.68,-2.66,-5.34
-9.7018,0.076618,0.464499,0.034449,-0.001091,0.018685,22.079681,47.778984,-35.725296,-2.69,-2.67,-5.35
-9.7018,0.076618,0.464499,0.034449,-0.001091,0.018685,22.079681,47.778984,-35.725296,-2.69,-2.67,-5.35
-9.7018,0.076618,0.421401,0.034449,-0.000558,0.019617,22.079681,47.778984,-35.725296,-2.69,-2.67,-5.36
-9.706589,0.081407,0.450133,0.034182,-0.000957,0.020017,22.079681,47.778984,-35.725296,-2.7,-2.67,-5.36
-9.706589,0.081407,0.450133,0.034182,-0.000957,0.020017,22.079681,47.778984,-35.725296,-2.7,-2.68,-5.37
-9.682645,0.067041,0.445344,0.033117,-0.000292,0.019084,22.079681,47.778984,-35.725296,-2.7,-2.68,-5.37
-9.682645,0.067041,0.464499,0.034449,0.000374,0.019218,22.079681,47.778984,-35.725296,-2.7,-2.68,-5.38
-9.697011,0.081407,0.464499,0.034848,-0.000957,0.020017,22.079681,47.778984,-35.725296,-2.71,-2.69,-5.38
-9.697011,0.081407,0.464499,0.034848,-0.000957,0.020017,22.079681,47.778984,-35.725296,-2.71,-2.69,-5.39
-9.7018,0.07183,0.445344,0.033783,-0.000558,0.018818,22.079681,47.778984,-35.725296,-2.71,-2.69,-5.39
-9.692223,0.057464,0.430978,0.033383,-0.000425,0.018818,21.8987,48.683887,-38.001907,-2.72,-2.69,-5.4
-9.692223,0.057464,0.430978,0.033383,-0.000425,0.018818,21.8987,48.683887,-38.001907,-2.72,-2.7,-5.4
-9.692223,0.067041,0.440556,0.033783,0.000907,0.02015,21.8987,48.683887,-38.001907,-2.72,-2.7,-5.41
-9.697011,0.062252,0.440556,0.03365,-0.000824,0.020283,21.8987,48.683887,-38.001907,-2.72,-2.7,-5.41
-9.697011,0.062252,0.440556,0.03365,-0.000824,0.020283,21.8987,48.683887,-38.001907,-2.73,-2.71,-5.42
-9.692223,0.067041,0.440556,0.03365,-0.000691,0.018951,21.8987,48.683887,-38.001907,-2.73,-2.71,-5.42
-9.687434,0.067041,0.430978,0.03365,0.000108,0.019883,21.8987,48.683887,-38.001907,-2.73,-2.71,-5.43
-9.687434,0.067041,0.430978,0.03365,0.000108,0.019883,21.8987,48.683887,-38.001907,-2.73,-2.72,-5.43
-9.687434,0.076618,0.454922,0.034582,-0.000292,0.020416,21.8987,48.683887,-38.001907,-2.74,-2.72,-5.44
-9.692223,0.07183,0.435767,0.03365,-0.001224,0.020017,22.622625,47.236038,-36.600917,-2.74,-2.72,-5.44
-9.692223,0.07183,0.435767,0.03365,-0.001224,0.020017,22.622625,47.236038,-36.600917,-2.74,-2.72,-5.45
-9.687434,0.057464,0.445344,0.033516,0.00064,0.019351,22.622625,47.236038,-36.600917,-2.75,-2.73,-5.45
-9.7018,0.052675,0.464499,0.033916,-0.001357,0.019084,22.622625,47.236038,-36.600917,-2.75,-2.73,-5.46
-9.7018,0.052675,0.464499,0.033916,-0.001357,0.019084,22.622625,47.236038,-36.600917,-2.75,-2.73,-5.46
-9.687434,0.057464,0.430978,0.032851,-0.000824,0.02015,22.622625,47.236038,-36.600917,-2.75,-2.74,-5.47
-9.697011,0.057464,0.445344,0.033916,-0.000292,0.019484,22.622625,47.236038,-36.600917,-2.76,-2.74,-5.47
-,,,,,,,,,,,
